file_word,trials.thisRepN,trials.thisTrialN,trials.thisN,trials.thisIndex,key_resp.started,text_3.started,sound_1.started,text.started,text_2.started,text_3.stopped,key_resp.keys,key_resp.rt,participant,session,date,expName,psychopyVersion,frameRate,
stim/493828_blockNr_1_taskNr_6_trialNr_8_english_recording.wav,0,0,0,314,13.141806332976557,13.141806332976557,13.579644124297193,13.578758666000795,13.578758666000795,13.64436283300165,p,3.606648250017315,407687,001,2023-01-18_10h06.13.774,exp,2022.2.3,59.416868000251,
stim/499511_blockNr_1_taskNr_6_trialNr_20_english_recording.wav,0,1,1,554,16.848532624950167,16.848532624950167,17.295596458291403,17.29568187496625,17.29568187496625,17.362009915988892,p,3.0305591670330614,407687,001,2023-01-18_10h06.13.774,exp,2022.2.3,59.416868000251,
stim/493445_blockNr_1_taskNr_6_trialNr_3_english_recording.wav,0,2,2,240,19.918736874999013,19.918736874999013,20.395767541293754,20.39576995797688,20.39576995797688,20.428433374967426,p,2.1914105000323616,407687,001,2023-01-18_10h06.13.774,exp,2022.2.3,59.416868000251,
stim/492821_blockNr_1_taskNr_7_trialNr_9_english_recording.wav,0,3,3,44,22.12867899995763,22.12867899995763,22.612852249277058,22.61235787498299,22.61235787498299,22.629546165990178,q,2.0698766669956967,407687,001,2023-01-18_10h06.13.774,exp,2022.2.3,59.416868000251,
stim/499461_blockNr_1_taskNr_7_trialNr_1_english_recording.wav,0,4,4,405,24.22812179097673,24.22812179097673,24.712520749290707,24.71199787495425,24.71199787495425,24.728920291003305,q,2.0522012090077624,407687,001,2023-01-18_10h06.13.774,exp,2022.2.3,59.416868000251,
stim/493072_blockNr_1_taskNr_7_trialNr_11_spanish_recording.wav,0,5,5,136,26.31139554094989,26.31139554094989,26.79595208329265,26.795844207983464,26.795844207983464,26.811806415964384,q,3.9772369169513695,407687,001,2023-01-18_10h06.13.774,exp,2022.2.3,59.416868000251,
stim/499567_blockNr_1_taskNr_7_trialNr_20_english_recording.wav,0,6,6,653,30.31154574995162,30.31154574995162,30.79582412428572,30.796382540953346,30.796382540953346,30.81196241598809,q,2.784089208988007,407687,001,2023-01-18_10h06.13.774,exp,2022.2.3,59.416868000251,
stim/494205_blockNr_1_taskNr_6_trialNr_2_english_recording.wav,0,7,7,328,33.11132512497716,33.11132512497716,33.59614283327828,33.59586866595782,33.59586866595782,33.61258208297659,q,2.144732041982934,407687,001,2023-01-18_10h06.13.774,exp,2022.2.3,59.416868000251,
stim/493272_blockNr_1_taskNr_7_trialNr_16_english_recording.wav,0,8,8,174,35.27867383300327,35.27867383300327,35.77925516628311,35.77901608298998,35.77901608298998,35.77901608298998,q,2.600474250037223,407687,001,2023-01-18_10h06.13.774,exp,2022.2.3,59.416868000251,
stim/493454_blockNr_1_taskNr_6_trialNr_16_english_recording.wav,0,9,9,264,37.895180374966,37.895180374966,38.379492041288174,38.37899091595318,38.37899091595318,38.396497749956325,q,2.3932158749666996,407687,001,2023-01-18_10h06.13.774,exp,2022.2.3,59.416868000251,
stim/499557_blockNr_1_taskNr_6_trialNr_20_english_recording.wav,0,10,10,633,40.31535362498835,40.31535362498835,40.79613904129364,40.80164895800408,40.80164895800408,40.81246733298758,p,2.44799920800142,407687,001,2023-01-18_10h06.13.774,exp,2022.2.3,59.416868000251,
stim/493297_blockNr_1_taskNr_7_trialNr_1_english_recording.wav,0,11,11,198,42.79869008297101,42.79869008297101,43.28027070829994,43.27945124998223,43.27945124998223,43.312685665965546,q,2.2668706250260584,407687,001,2023-01-18_10h06.13.774,exp,2022.2.3,59.416868000251,
stim/499489_blockNr_1_taskNr_6_trialNr_8_english_recording.wav,0,12,12,520,45.09523216600064,45.09523216600064,45.57952479125815,45.57953095796984,45.57953095796984,45.59951450000517,p,4.078821042028721,407687,001,2023-01-18_10h06.13.774,exp,2022.2.3,59.416868000251,
stim/493453_blockNr_1_taskNr_6_trialNr_1_english_recording.wav,0,13,13,252,49.1956484579714,49.1956484579714,49.696480499272,49.69607112498488,49.69607112498488,49.69607112498488,q,3.5164942919509485,407687,001,2023-01-18_10h06.13.774,exp,2022.2.3,59.416868000251,
stim/493828_blockNr_1_taskNr_6_trialNr_5_english_recording.wav,0,14,14,313,52.728784665989224,52.728784665989224,53.23002904127934,53.22958783298964,53.22958783298964,53.22958783298964,q,2.9287270000204444,407687,001,2023-01-18_10h06.13.774,exp,2022.2.3,59.416868000251,
stim/492817_blockNr_1_taskNr_7_trialNr_7_english_recording.wav,0,15,15,26,55.67980737495236,55.67980737495236,56.163418916269435,56.16321283299476,56.16321283299476,56.17968162498437,q,2.7022720419918187,407687,001,2023-01-18_10h06.13.774,exp,2022.2.3,59.416868000251,
stim/499473_blockNr_1_taskNr_6_trialNr_12_english_recording.wav,0,16,16,450,58.41247670794837,58.41247670794837,58.896986249292965,58.89674599998398,58.89674599998398,58.9127880409942,q,3.8297502089990303,407687,001,2023-01-18_10h06.13.774,exp,2022.2.3,59.416868000251,
stim/493310_blockNr_1_taskNr_6_trialNr_9_english_recording.wav,0,17,17,215,62.2625531659578,62.2625531659578,62.746841416269305,62.745938707957976,62.745938707957976,62.762569165963214,q,2.882311833964195,407687,001,2023-01-18_10h06.13.774,exp,2022.2.3,59.416868000251,
stim/494162_blockNr_1_taskNr_7_trialNr_3_english_recording.wav,0,18,18,322,65.16277987498324,65.16277987498324,65.66399949926999,65.6622172499774,65.6622172499774,65.6622172499774,p,2.7781211249530315,407687,001,2023-01-18_10h06.13.774,exp,2022.2.3,59.416868000251,
stim/499474_blockNr_1_taskNr_6_trialNr_22_english_recording.wav,0,19,19,465,67.96240416599903,67.96240416599903,68.44716399929602,68.44662733300356,68.44662733300356,68.46407145797275,q,2.3998192510334775,407687,001,2023-01-18_10h06.13.774,exp,2022.2.3,59.416868000251,
stim/499454_blockNr_1_taskNr_6_trialNr_24_english_recording.wav,0,20,20,382,70.38010824995581,70.38010824995581,70.88085145827499,70.88002483296441,70.88002483296441,70.88002483296441,q,2.736763584020082,407687,001,2023-01-18_10h06.13.774,exp,2022.2.3,59.416868000251,
stim/499466_blockNr_1_taskNr_6_trialNr_13_english_recording.wav,0,21,21,416,73.14609270798974,73.14609270798974,73.64674454128253,73.64698983298149,73.64698983298149,73.64698983298149,q,2.532719751005061,407687,001,2023-01-18_10h06.13.774,exp,2022.2.3,59.416868000251,
stim/500223_blockNr_1_taskNr_7_trialNr_21_spanish_recording.wav,0,22,22,716,75.69572470796993,75.69572470796993,76.18072254127473,76.18057679099729,76.18057679099729,76.19731929094996,q,2.656974292011,407687,001,2023-01-18_10h06.13.774,exp,2022.2.3,59.416868000251,
stim/499475_blockNr_1_taskNr_6_trialNr_13_english_recording.wav,0,23,23,470,78.37942174996715,78.37942174996715,78.86391604125383,78.86436612496618,78.86436612496618,78.88041066599544,p,3.7663387919892557,407687,001,2023-01-18_10h06.13.774,exp,2022.2.3,59.416868000251,
stim/499454_blockNr_1_taskNr_6_trialNr_22_english_recording.wav,0,24,24,381,82.16378049994819,82.16378049994819,82.64751399929519,82.64738562499406,82.64738562499406,82.66431295796065,q,2.300828000996262,407687,001,2023-01-18_10h06.13.774,exp,2022.2.3,59.416868000251,
stim/499507_blockNr_1_taskNr_7_trialNr_13_english_recording.wav,0,25,25,541,84.49743612494785,84.49743612494785,84.99748658328899,84.99711583298631,84.99711583298631,84.99711583298631,q,2.8959052919526584,407687,001,2023-01-18_10h06.13.774,exp,2022.2.3,59.416868000251,
stim/493297_blockNr_1_taskNr_7_trialNr_4_english_recording.wav,0,26,26,204,87.41316495795036,87.41316495795036,87.89788087426568,87.8972711659735,87.8972711659735,87.91535116598243,q,2.551512041944079,407687,001,2023-01-18_10h06.13.774,exp,2022.2.3,59.416868000251,
stim/499451_blockNr_1_taskNr_7_trialNr_11_english_recording.wav,0,27,27,370,89.99769829097204,89.99769829097204,90.49706799925188,90.49763395800255,90.49763395800255,90.49763395800255,q,2.273302292043809,407687,001,2023-01-18_10h06.13.774,exp,2022.2.3,59.416868000251,
stim/499512_blockNr_1_taskNr_7_trialNr_18_english_recording.wav,0,28,28,562,92.29756779095624,92.29756779095624,92.78098679128452,92.78081370797008,92.78081370797008,92.79742824996356,q,2.2484468749607913,407687,001,2023-01-18_10h06.13.774,exp,2022.2.3,59.416868000251,
stim/493454_blockNr_1_taskNr_6_trialNr_8_english_recording.wav,0,29,29,269,94.56408858299255,94.56408858299255,95.04755524928332,95.04719845799264,95.04719845799264,95.06405849999283,q,2.298644584021531,407687,001,2023-01-18_10h06.13.774,exp,2022.2.3,59.416868000251,
stim/500223_blockNr_1_taskNr_7_trialNr_1_spanish_recording.wav,0,30,30,711,96.88047862495296,96.88047862495296,97.38096924927667,97.381118624995,97.381118624995,97.381118624995,q,2.404160709003918,407687,001,2023-01-18_10h06.13.774,exp,2022.2.3,59.416868000251,
stim/492821_blockNr_1_taskNr_7_trialNr_4_english_recording.wav,0,31,31,43,99.31323045794852,99.31323045794852,99.79787808328983,99.79785262496443,99.79785262496443,99.81439724995289,p,2.4582470830064267,407687,001,2023-01-18_10h06.13.774,exp,2022.2.3,59.416868000251,
stim/493445_blockNr_1_taskNr_6_trialNr_12_english_recording.wav,0,32,32,234,101.79690683295485,101.79690683295485,102.2802314992703,102.28110529098194,102.28110529098194,102.29753870796412,p,2.911918583966326,407687,001,2023-01-18_10h06.13.774,exp,2022.2.3,59.416868000251,
stim/492813_blockNr_1_taskNr_6_trialNr_8_english_recording.wav,0,33,33,8,104.73038420797093,104.73038420797093,105.23153420827002,105.23120154096978,105.23120154096978,105.23120154096978,q,2.4168031259905547,407687,001,2023-01-18_10h06.13.774,exp,2022.2.3,59.416868000251,
stim/499456_blockNr_1_taskNr_7_trialNr_18_english_recording.wav,0,34,34,392,107.16466841596412,107.16466841596412,107.6644894992758,107.66502254095394,107.66502254095394,107.66502254095394,q,2.4739832089981064,407687,001,2023-01-18_10h06.13.774,exp,2022.2.3,59.416868000251,
stim/499483_blockNr_1_taskNr_6_trialNr_23_english_recording.wav,0,35,35,500,109.66392458300106,109.66392458300106,110.14846099928836,110.14826037496096,110.14826037496096,110.16482916596578,q,5.266130626027007,407687,001,2023-01-18_10h06.13.774,exp,2022.2.3,59.416868000251,
stim/492880_blockNr_1_taskNr_7_trialNr_7_english_recording.wav,0,36,36,116,114.95005995797692,114.95005995797692,115.43202891629771,115.4303364160005,115.4303364160005,115.4643206250039,q,2.394983250007499,407687,001,2023-01-18_10h06.13.774,exp,2022.2.3,59.416868000251,
stim/493341_blockNr_1_taskNr_7_trialNr_14_english_recording.wav,0,37,37,219,117.36404625000432,117.36404625000432,117.84869766629417,117.84815808298299,117.84815808298299,117.86488116596593,q,2.431698583008256,407687,001,2023-01-18_10h06.13.774,exp,2022.2.3,59.416868000251,
stim/499516_blockNr_1_taskNr_6_trialNr_7_english_recording.wav,0,38,38,593,119.81402454100316,119.81402454100316,120.29881995827309,120.29820862499764,120.29820862499764,120.31463108299067,q,2.1678610010421835,407687,001,2023-01-18_10h06.13.774,exp,2022.2.3,59.416868000251,
stim/492835_blockNr_1_taskNr_6_trialNr_13_spanish_recording.wav,0,39,39,65,122.01473058300326,122.01473058300326,122.49865049925283,122.49828058294952,122.49828058294952,122.51487620797707,q,2.0232964999740943,407687,001,2023-01-18_10h06.13.774,exp,2022.2.3,59.416868000251,
stim/499438_blockNr_1_taskNr_6_trialNr_18_english_recording.wav,0,40,40,345,124.0638502909569,124.0638502909569,124.56539120826055,124.56522962497547,124.56522962497547,124.56522962497547,q,2.5515789589844644,407687,001,2023-01-18_10h06.13.774,exp,2022.2.3,59.416868000251,
stim/492882_blockNr_1_taskNr_6_trialNr_5_english_recording.wav,0,41,41,125,126.64803887496237,126.64803887496237,127.14731091625872,127.14848066598643,127.14848066598643,127.14848066598643,q,2.5962559579638764,407687,001,2023-01-18_10h06.13.774,exp,2022.2.3,59.416868000251,
stim/500081_blockNr_1_taskNr_6_trialNr_9_spanish_recording.wav,0,42,42,683,129.2646835409687,129.2646835409687,129.74880883328734,129.74849145795451,129.74849145795451,129.76509966596495,p,3.1103809169726446,407687,001,2023-01-18_10h06.13.774,exp,2022.2.3,59.416868000251,
stim/492845_blockNr_1_taskNr_7_trialNr_18_english_recording.wav,0,43,43,75,132.39822020794963,132.39822020794963,132.88149516626146,132.88153954100562,132.88153954100562,132.89852374995826,p,2.303446834033821,407687,001,2023-01-18_10h06.13.774,exp,2022.2.3,59.416868000251,
stim/499467_blockNr_1_taskNr_7_trialNr_16_english_recording.wav,0,44,44,426,134.73117708298378,134.73117708298378,135.21496658328107,135.2153097499977,135.2153097499977,135.23144062497886,p,4.001575876027346,407687,001,2023-01-18_10h06.13.774,exp,2022.2.3,59.416868000251,
stim/500223_blockNr_1_taskNr_7_trialNr_10_spanish_recording.wav,0,45,45,712,138.75037579098716,138.75037579098716,139.24888383327635,139.24894679099089,139.24894679099089,139.26507641596254,q,2.057427624997217,407687,001,2023-01-18_10h06.13.774,exp,2022.2.3,59.416868000251,
stim/492835_blockNr_1_taskNr_6_trialNr_5_spanish_recording.wav,0,46,46,71,140.83183349994943,140.83183349994943,141.3157199992973,141.31573816598393,141.31573816598393,141.33119804097805,q,1.9982412919634953,407687,001,2023-01-18_10h06.13.774,exp,2022.2.3,59.416868000251,
stim/500081_blockNr_1_taskNr_6_trialNr_6_spanish_recording.wav,0,47,47,682,142.84789783298038,142.84789783298038,143.3326458333002,143.33163895795587,143.33163895795587,143.34885216597468,q,2.5704403749550693,407687,001,2023-01-18_10h06.13.774,exp,2022.2.3,59.416868000251,
stim/500141_blockNr_1_taskNr_7_trialNr_7_spanish_recording.wav,0,48,48,701,145.44832416600548,145.44832416600548,145.932481083303,145.93165795796085,145.93165795796085,145.9486973329913,q,2.7040602500201203,407687,001,2023-01-18_10h06.13.774,exp,2022.2.3,59.416868000251,
stim/499480_blockNr_1_taskNr_6_trialNr_19_english_recording.wav,0,49,49,489,148.18226929096272,148.18226929096272,148.68237704130007,148.68254358298145,148.68254358298145,148.68254358298145,p,2.3312715420033783,407687,001,2023-01-18_10h06.13.774,exp,2022.2.3,59.416868000251,
stim/499454_blockNr_1_taskNr_6_trialNr_4_english_recording.wav,0,50,50,383,150.53167812497122,150.53167812497122,151.03275904127514,151.0321557909483,151.0321557909483,151.0321557909483,q,2.276463624963071,407687,001,2023-01-18_10h06.13.774,exp,2022.2.3,59.416868000251,
stim/492845_blockNr_1_taskNr_7_trialNr_2_english_recording.wav,0,51,51,76,152.83187308296328,152.83187308296328,153.31584291629844,153.31601337494794,153.31601337494794,153.33212045795517,q,2.212306457979139,407687,001,2023-01-18_10h06.13.774,exp,2022.2.3,59.416868000251,
stim/499461_blockNr_1_taskNr_7_trialNr_11_english_recording.wav,0,52,52,407,155.0649027079926,155.0649027079926,155.5661255412677,155.56605216598837,155.56605216598837,155.56605216598837,p,2.4543483749730512,407687,001,2023-01-18_10h06.13.774,exp,2022.2.3,59.416868000251,
stim/499561_blockNr_1_taskNr_7_trialNr_18_english_recording.wav,0,53,53,641,157.54874754097546,157.54874754097546,158.03276154129418,158.03268870798638,158.03268870798638,158.04929087497294,p,2.9654603750095703,407687,001,2023-01-18_10h06.13.774,exp,2022.2.3,59.416868000251,
stim/499467_blockNr_1_taskNr_7_trialNr_23_english_recording.wav,0,54,54,428,160.5314357909956,160.5314357909956,161.03321095827852,161.03316920797806,161.03316920797806,161.03316920797806,p,2.273970875015948,407687,001,2023-01-18_10h06.13.774,exp,2022.2.3,59.416868000251,
stim/500225_blockNr_1_taskNr_6_trialNr_24_spanish_recording.wav,0,55,55,725,162.8320399999502,162.8320399999502,163.31633874929395,163.31608662498184,163.31608662498184,163.33238420798443,q,2.7520772920106538,407687,001,2023-01-18_10h06.13.774,exp,2022.2.3,59.416868000251,
stim/499497_blockNr_1_taskNr_6_trialNr_13_english_recording.wav,0,56,56,531,165.61659774999134,165.61659774999134,166.09966933329707,166.09924987499835,166.09924987499835,166.1160424159607,q,2.107004459016025,407687,001,2023-01-18_10h06.13.774,exp,2022.2.3,59.416868000251,
stim/493828_blockNr_1_taskNr_6_trialNr_4_english_recording.wav,0,57,57,312,167.7483852499863,167.7483852499863,168.23323929127656,168.23282233299688,168.23282233299688,168.24907308298862,p,2.562694249965716,407687,001,2023-01-18_10h06.13.774,exp,2022.2.3,59.416868000251,
stim/492835_blockNr_1_taskNr_6_trialNr_20_spanish_recording.wav,0,58,58,68,170.33208216598723,170.33208216598723,170.8160314583045,170.81621149997227,170.81621149997227,170.83310958294896,q,1.9794655420118943,407687,001,2023-01-18_10h06.13.774,exp,2022.2.3,59.416868000251,
stim/493454_blockNr_1_taskNr_6_trialNr_18_english_recording.wav,0,59,59,265,172.33221054100432,172.33221054100432,172.81656612430817,172.81607337499736,172.81607337499736,172.83312241599197,p,2.236686791991815,407687,001,2023-01-18_10h06.13.774,exp,2022.2.3,59.416868000251,
stim/492856_blockNr_1_taskNr_7_trialNr_1_english_recording.wav,0,60,60,81,174.59886133298278,174.59886133298278,175.08298754125718,175.08324737497605,175.08324737497605,175.09981654095463,p,2.636036833981052,407687,001,2023-01-18_10h06.13.774,exp,2022.2.3,59.416868000251,
stim/492864_blockNr_1_taskNr_6_trialNr_4_english_recording.wav,0,61,61,95,177.26555812498555,177.26555812498555,177.74958195826622,177.74986074998742,177.74986074998742,177.7663489159895,p,2.766120833985042,407687,001,2023-01-18_10h06.13.774,exp,2022.2.3,59.416868000251,
stim/492880_blockNr_1_taskNr_7_trialNr_5_english_recording.wav,0,62,62,115,180.0501551249763,180.0501551249763,180.53318374928205,180.53226312500192,180.53226312500192,180.55001358297886,q,2.2645380839821883,407687,001,2023-01-18_10h06.13.774,exp,2022.2.3,59.416868000251,
stim/499507_blockNr_1_taskNr_7_trialNr_7_english_recording.wav,0,63,63,548,182.33180737495422,182.33180737495422,182.81614770825837,182.8165503749624,182.8165503749624,182.83270474994788,q,2.544099083985202,407687,001,2023-01-18_10h06.13.774,exp,2022.2.3,59.416868000251,
stim/499451_blockNr_1_taskNr_7_trialNr_10_english_recording.wav,0,64,64,369,184.8996119159856,184.8996119159856,185.38365933326423,185.38323399994988,185.38323399994988,185.399774874968,p,2.268144499976188,407687,001,2023-01-18_10h06.13.774,exp,2022.2.3,59.416868000251,
stim/499489_blockNr_1_taskNr_6_trialNr_6_english_recording.wav,0,65,65,519,187.19914341595722,187.19914341595722,187.70033066630714,187.69962049997412,187.69962049997412,187.69962049997412,p,2.7543841669685207,407687,001,2023-01-18_10h06.13.774,exp,2022.2.3,59.416868000251,
stim/499525_blockNr_1_taskNr_6_trialNr_8_english_recording.wav,0,66,66,602,189.98260591598228,189.98260591598228,190.46723824929796,190.4663003750029,190.4663003750029,190.48383070796262,q,2.2999895839602686,407687,001,2023-01-18_10h06.13.774,exp,2022.2.3,59.416868000251,
stim/492882_blockNr_1_taskNr_6_trialNr_14_english_recording.wav,0,67,67,118,192.29904524999438,192.29904524999438,192.80089374926757,192.7989263329655,192.7989263329655,192.7989263329655,p,2.5751542079960927,407687,001,2023-01-18_10h06.13.774,exp,2022.2.3,59.416868000251,
stim/500141_blockNr_1_taskNr_7_trialNr_16_spanish_recording.wav,0,68,68,697,194.89938449999318,194.89938449999318,195.38365445825622,195.38352237496292,195.38352237496292,195.39950587495696,q,2.955118666985072,407687,001,2023-01-18_10h06.13.774,exp,2022.2.3,59.416868000251,
stim/500100_blockNr_1_taskNr_6_trialNr_21_spanish_recording.wav,0,69,69,687,197.88388987496728,197.88388987496728,198.36692137426581,198.36668445798568,198.36668445798568,198.38375991600333,p,6.556448167015333,407687,001,2023-01-18_10h06.13.774,exp,2022.2.3,59.416868000251,
stim/500265_blockNr_1_taskNr_6_trialNr_14_spanish_recording.wav,0,70,70,731,204.46699758298928,204.46699758298928,204.9502669992915,204.95078899996588,204.95078899996588,204.96732791600516,p,3.239345207985025,407687,001,2023-01-18_10h06.13.774,exp,2022.2.3,59.416868000251,
stim/500298_blockNr_1_taskNr_7_trialNr_24_spanish_recording.wav,0,71,71,753,207.7337324579712,207.7337324579712,208.21760795828305,208.21727483300492,208.21727483300492,208.23405270796502,p,3.7551955829840153,407687,001,2023-01-18_10h06.13.774,exp,2022.2.3,59.416868000251,
stim/493488_blockNr_1_taskNr_6_trialNr_23_english_recording.wav,0,72,72,273,211.51595483295387,211.51595483295387,212.00116445826717,212.0001978329965,212.0001978329965,212.0174679159536,q,2.161890583985951,407687,001,2023-01-18_10h06.13.774,exp,2022.2.3,59.416868000251,
stim/493445_blockNr_1_taskNr_6_trialNr_8_english_recording.wav,0,73,73,242,213.70002783299424,213.70002783299424,214.18422174929293,214.18427349999547,214.18427349999547,214.20007749996148,p,2.0876952510443516,407687,001,2023-01-18_10h06.13.774,exp,2022.2.3,59.416868000251,
stim/499461_blockNr_1_taskNr_7_trialNr_18_english_recording.wav,0,74,74,410,215.8174289999879,215.8174289999879,216.30094804129914,216.3003640829702,216.3003640829702,216.31742383295204,q,3.2118620420224033,407687,001,2023-01-18_10h06.13.774,exp,2022.2.3,59.416868000251,
stim/492909_blockNr_1_taskNr_6_trialNr_21_english_recording.wav,0,75,75,131,219.05107258295175,219.05107258295175,219.53429166627467,219.53371966595296,219.53371966595296,219.55092216597404,q,3.552260374999605,407687,001,2023-01-18_10h06.13.774,exp,2022.2.3,59.416868000251,
stim/499567_blockNr_1_taskNr_7_trialNr_2_english_recording.wav,0,76,76,652,222.6341482909629,222.6341482909629,223.1179650832608,223.11718591599492,223.11718591599492,223.13370654097525,p,2.516982458997518,407687,001,2023-01-18_10h06.13.774,exp,2022.2.3,59.416868000251,
stim/499570_blockNr_1_taskNr_6_trialNr_7_english_recording.wav,0,77,77,664,225.18408441595966,225.18408441595966,225.66764845825384,225.66738004097715,225.66738004097715,225.6845033330028,q,2.3934509590035304,407687,001,2023-01-18_10h06.13.774,exp,2022.2.3,59.416868000251,
stim/493522_blockNr_1_taskNr_7_trialNr_6_spanish_recording.wav,0,78,78,296,227.59992345795035,227.59992345795035,228.08398091628334,228.08470887498697,228.08470887498697,228.10145108297002,q,3.8454884589882568,407687,001,2023-01-18_10h06.13.774,exp,2022.2.3,59.416868000251,
stim/500301_blockNr_1_taskNr_6_trialNr_1_spanish_recording.wav,0,79,79,756,231.4671703329659,231.4671703329659,231.9684932082717,231.9672242499655,231.9672242499655,231.9672242499655,q,1.9213151670410298,407687,001,2023-01-18_10h06.13.774,exp,2022.2.3,59.416868000251,
stim/500271_blockNr_1_taskNr_6_trialNr_14_spanish_recording.wav,0,80,80,741,233.4171167909517,233.4171167909517,233.9016621243034,233.9013551249518,233.9013551249518,233.91793983295793,q,3.9882250840310007,407687,001,2023-01-18_10h06.13.774,exp,2022.2.3,59.416868000251,
stim/499461_blockNr_1_taskNr_7_trialNr_14_english_recording.wav,0,81,81,408,237.43405466596596,237.43405466596596,237.91836962428061,237.91765524999937,237.91765524999937,237.9342284159502,q,2.9332589169498533,407687,001,2023-01-18_10h06.13.774,exp,2022.2.3,59.416868000251,
stim/493447_blockNr_1_taskNr_6_trialNr_5_spanish_recording.wav,0,82,82,249,240.38409608299844,240.38409608299844,240.8850348332606,240.88437933300156,240.88437933300156,240.88437933300156,q,4.6515082090045325,407687,001,2023-01-18_10h06.13.774,exp,2022.2.3,59.416868000251,
stim/500298_blockNr_1_taskNr_7_trialNr_13_spanish_recording.wav,0,83,83,748,245.06736179097788,245.06736179097788,245.55139616630623,245.55210395797621,245.55210395797621,245.5682222909527,q,3.882288791995961,407687,001,2023-01-18_10h06.13.774,exp,2022.2.3,59.416868000251,
stim/493072_blockNr_1_taskNr_7_trialNr_12_spanish_recording.wav,0,84,84,137,248.96803354099393,248.96803354099393,249.4518379582849,249.4516478329897,249.4516478329897,249.46762874996057,p,3.5983826250303537,407687,001,2023-01-18_10h06.13.774,exp,2022.2.3,59.416868000251,
stim/492828_blockNr_1_taskNr_6_trialNr_13_spanish_recording.wav,0,85,85,55,252.58458283299115,252.58458283299115,253.0686499162519,253.06831191596575,253.06831191596575,253.08539283298887,p,2.355643374961801,407687,001,2023-01-18_10h06.13.774,exp,2022.2.3,59.416868000251,
stim/499489_blockNr_1_taskNr_6_trialNr_22_english_recording.wav,0,86,86,518,254.96779316599714,254.96779316599714,255.45173233326642,255.4518504999578,255.4518504999578,255.46846366598038,p,4.625564000976738,407687,001,2023-01-18_10h06.13.774,exp,2022.2.3,59.416868000251,
stim/493522_blockNr_1_taskNr_7_trialNr_10_spanish_recording.wav,0,87,87,288,259.6181080410024,259.6181080410024,260.1191496662621,260.11885370797245,260.11885370797245,260.11885370797245,q,2.9836814580485225,407687,001,2023-01-18_10h06.13.774,exp,2022.2.3,59.416868000251,
stim/493072_blockNr_1_taskNr_7_trialNr_4_spanish_recording.wav,0,88,88,141,262.6175899999798,262.6175899999798,263.10229620830506,263.10255204100395,263.10255204100395,263.1184403329971,q,3.0555383340106346,407687,001,2023-01-18_10h06.13.774,exp,2022.2.3,59.416868000251,
stim/499456_blockNr_1_taskNr_7_trialNr_17_english_recording.wav,0,89,89,391,265.70202787499875,265.70202787499875,266.185929333308,266.1852411250002,266.1852411250002,266.2023358329898,p,2.067495791998226,407687,001,2023-01-18_10h06.13.774,exp,2022.2.3,59.416868000251,
stim/499458_blockNr_1_taskNr_6_trialNr_18_english_recording.wav,0,90,90,397,267.8013838749612,267.8013838749612,268.30195145825274,268.3017570829834,268.3017570829834,268.3017570829834,q,2.3998639170313254,407687,001,2023-01-18_10h06.13.774,exp,2022.2.3,59.416868000251,
stim/493499_blockNr_1_taskNr_6_trialNr_21_english_recording.wav,0,91,91,284,270.2183632910019,270.2183632910019,270.70244854128106,270.702580415993,270.702580415993,270.719215582998,q,2.5683133330312558,407687,001,2023-01-18_10h06.13.774,exp,2022.2.3,59.416868000251,
stim/499444_blockNr_1_taskNr_6_trialNr_8_english_recording.wav,0,92,92,368,272.8183267079876,272.8183267079876,273.3026996242523,273.3024371249485,273.3024371249485,273.3192129159579,q,2.360842833004426,407687,001,2023-01-18_10h06.13.774,exp,2022.2.3,59.416868000251,
stim/500401_blockNr_1_taskNr_6_trialNr_22_spanish_recording.wav,0,93,93,768,275.2019126249943,275.2019126249943,275.68581187426463,275.68519445799757,275.68519445799757,275.70224391599186,q,3.2272019590018317,407687,001,2023-01-18_10h06.13.774,exp,2022.2.3,59.416868000251,
stim/499473_blockNr_1_taskNr_6_trialNr_20_english_recording.wav,0,94,94,453,278.45194454095326,278.45194454095326,278.9358163332625,278.93533854099223,278.93533854099223,278.95243637496606,p,2.8112307919654995,407687,001,2023-01-18_10h06.13.774,exp,2022.2.3,59.416868000251,
stim/499474_blockNr_1_taskNr_6_trialNr_21_english_recording.wav,0,95,95,464,281.2856467079837,281.2856467079837,281.76911674927106,281.76937687495956,281.76937687495956,281.78609041596064,p,2.2014870420098305,407687,001,2023-01-18_10h06.13.774,exp,2022.2.3,59.416868000251,
stim/499451_blockNr_1_taskNr_7_trialNr_3_english_recording.wav,0,96,96,377,283.5187804159941,283.5187804159941,284.01975737428876,284.0194074159954,284.0194074159954,284.0194074159954,p,1.5761862500221469,407687,001,2023-01-18_10h06.13.774,exp,2022.2.3,59.416868000251,
stim/499466_blockNr_1_taskNr_6_trialNr_12_english_recording.wav,0,97,97,415,285.11844666599063,285.11844666599063,285.6031652082864,285.60250629100483,285.60250629100483,285.61972604098264,q,2.442981376021635,407687,001,2023-01-18_10h06.13.774,exp,2022.2.3,59.416868000251,
stim/499512_blockNr_1_taskNr_7_trialNr_17_english_recording.wav,0,98,98,561,287.58590454095975,287.58590454095975,288.06977045825334,288.0701652079588,288.0701652079588,288.08584499999415,p,3.123332583985757,407687,001,2023-01-18_10h06.13.774,exp,2022.2.3,59.416868000251,
stim/499477_blockNr_1_taskNr_6_trialNr_20_english_recording.wav,0,99,99,483,290.7355983330053,290.7355983330053,291.21961016625283,291.2193414159701,291.2193414159701,291.2362014160026,q,2.1379969590343535,407687,001,2023-01-18_10h06.13.774,exp,2022.2.3,59.416868000251,
stim/500271_blockNr_1_taskNr_6_trialNr_22_spanish_recording.wav,0,100,100,744,292.9027519579977,292.9027519579977,293.3866136242694,293.385846790974,293.385846790974,293.4018557499512,q,2.381563167029526,407687,001,2023-01-18_10h06.13.774,exp,2022.2.3,59.416868000251,
stim/499472_blockNr_1_taskNr_6_trialNr_18_english_recording.wav,0,101,101,445,295.30294154095463,295.30294154095463,295.7863256242534,295.7859143749811,295.7859143749811,295.8018574579619,q,4.014836874965113,407687,001,2023-01-18_10h06.13.774,exp,2022.2.3,59.416868000251,
stim/492909_blockNr_1_taskNr_6_trialNr_10_english_recording.wav,0,102,102,126,299.3354634999996,299.3354634999996,299.82049362429535,299.82049408298917,299.82049408298917,299.8368909159908,q,2.426253458019346,407687,001,2023-01-18_10h06.13.774,exp,2022.2.3,59.416868000251,
stim/499451_blockNr_1_taskNr_7_trialNr_12_english_recording.wav,0,103,103,371,301.78611966595054,301.78611966595054,302.2701789992687,302.2698180829757,302.2698180829757,302.28635520796524,p,2.4163195420405827,407687,001,2023-01-18_10h06.13.774,exp,2022.2.3,59.416868000251,
stim/493453_blockNr_1_taskNr_6_trialNr_7_english_recording.wav,0,104,104,260,304.2182598329964,304.2182598329964,304.70333095830284,304.7034639159683,304.7034639159683,304.7199398329831,q,1.9907941670389846,407687,001,2023-01-18_10h06.13.774,exp,2022.2.3,59.416868000251,
stim/499514_blockNr_1_taskNr_7_trialNr_20_english_recording.wav,0,105,105,571,306.2355078329565,306.2355078329565,306.719977958285,306.71958354098024,306.71958354098024,306.7366089579882,q,2.596803958003875,407687,001,2023-01-18_10h06.13.774,exp,2022.2.3,59.416868000251,
stim/499472_blockNr_1_taskNr_6_trialNr_1_english_recording.wav,0,106,106,441,308.8530439999886,308.8530439999886,309.33652516627336,309.3367726659635,309.3367726659635,309.35322312498465,p,2.6083815419697203,407687,001,2023-01-18_10h06.13.774,exp,2022.2.3,59.416868000251,
stim/499516_blockNr_1_taskNr_6_trialNr_12_english_recording.wav,0,107,107,585,311.4857924579992,311.4857924579992,311.97048154128134,311.9687197500025,311.9687197500025,311.9870669999509,q,2.831983417039737,407687,001,2023-01-18_10h06.13.774,exp,2022.2.3,59.416868000251,
stim/492882_blockNr_1_taskNr_6_trialNr_1_english_recording.wav,0,108,108,117,314.3357989579672,314.3357989579672,314.82047112429865,314.8202390829683,314.8202390829683,314.83665254095104,q,2.0150360420229845,407687,001,2023-01-18_10h06.13.774,exp,2022.2.3,59.416868000251,
stim/492813_blockNr_1_taskNr_6_trialNr_24_english_recording.wav,0,109,109,5,316.3703917079838,316.3703917079838,316.8533089163073,316.8520759999519,316.8520759999519,316.8866338329972,p,2.640698292001616,407687,001,2023-01-18_10h06.13.774,exp,2022.2.3,59.416868000251,
stim/494205_blockNr_1_taskNr_6_trialNr_18_english_recording.wav,0,110,110,326,319.03609712497564,319.03609712497564,319.5205982912856,319.5199230409926,319.5199230409926,319.53675499995006,q,11.139473374991212,407687,001,2023-01-18_10h06.13.774,exp,2022.2.3,59.416868000251,
stim/499532_blockNr_1_taskNr_6_trialNr_7_english_recording.wav,0,111,111,610,330.2028174159932,330.2028174159932,330.6872571242682,330.68724966596346,330.68724966596346,330.7038435409777,p,2.0565118749509566,407687,001,2023-01-18_10h06.13.774,exp,2022.2.3,59.416868000251,
stim/493488_blockNr_1_taskNr_6_trialNr_12_english_recording.wav,0,112,112,270,332.2862327909679,332.2862327909679,332.7706897082797,332.77061824995326,332.77061824995326,332.78698854096,q,2.9640238329884596,407687,001,2023-01-18_10h06.13.774,exp,2022.2.3,59.416868000251,
stim/499567_blockNr_1_taskNr_7_trialNr_4_english_recording.wav,0,113,113,655,335.269843749993,335.269843749993,335.7539351243002,335.75403458299115,335.75403458299115,335.770368041005,q,3.8557652510353364,407687,001,2023-01-18_10h06.13.774,exp,2022.2.3,59.416868000251,
stim/493817_blockNr_1_taskNr_7_trialNr_11_english_recording.wav,0,114,114,297,339.1531056249514,339.1531056249514,339.6373242492962,339.63687783299247,339.63687783299247,339.65375579096144,p,2.7034641669597477,407687,001,2023-01-18_10h06.13.774,exp,2022.2.3,59.416868000251,
stim/493414_blockNr_1_taskNr_7_trialNr_13_english_recording.wav,0,115,115,225,341.8865477499785,341.8865477499785,342.3710043332947,342.3700361659867,342.3700361659867,342.38758112496,p,2.8424254590063356,407687,001,2023-01-18_10h06.13.774,exp,2022.2.3,59.416868000251,
stim/492814_blockNr_1_taskNr_7_trialNr_1_spanish_recording.wav,0,116,116,9,344.75353299995186,344.75353299995186,345.2375473332766,345.2370619159774,345.2370619159774,345.25379808299476,q,1.85249150096206,407687,001,2023-01-18_10h06.13.774,exp,2022.2.3,59.416868000251,
stim/499574_blockNr_1_taskNr_6_trialNr_2_english_recording.wav,0,117,117,668,346.6365161659778,346.6365161659778,347.13757358326694,347.13678349996917,347.13678349996917,347.13678349996917,p,2.234634041960817,407687,001,2023-01-18_10h06.13.774,exp,2022.2.3,59.416868000251,
stim/499480_blockNr_1_taskNr_6_trialNr_6_english_recording.wav,0,118,118,494,348.8868803749792,348.8868803749792,349.3880040412594,349.38774237496546,349.38774237496546,349.38774237496546,p,2.795538167003542,407687,001,2023-01-18_10h06.13.774,exp,2022.2.3,59.416868000251,
stim/493297_blockNr_1_taskNr_7_trialNr_11_english_recording.wav,0,119,119,200,351.70399366598576,351.70399366598576,352.1877460412623,352.1878693329636,352.1878693329636,352.2045284159831,p,2.6650950830080546,407687,001,2023-01-18_10h06.13.774,exp,2022.2.3,59.416868000251,
stim/499511_blockNr_1_taskNr_6_trialNr_18_english_recording.wav,0,120,120,552,354.38677766598994,354.38677766598994,354.87124270827627,354.8711849160027,354.8711849160027,354.888056124968,q,2.488669083977584,407687,001,2023-01-18_10h06.13.774,exp,2022.2.3,59.416868000251,
stim/492880_blockNr_1_taskNr_7_trialNr_3_english_recording.wav,0,121,121,113,356.9049984999583,356.9049984999583,357.3880671242776,357.38807537499815,357.38807537499815,357.4048977079801,q,2.8826863750000484,407687,001,2023-01-18_10h06.13.774,exp,2022.2.3,59.416868000251,
stim/493072_blockNr_1_taskNr_7_trialNr_19_spanish_recording.wav,0,122,122,139,359.8037596659851,359.8037596659851,360.28839395827964,360.28754962497624,360.28754962497624,360.3048804999562,p,4.77761129202554,407687,001,2023-01-18_10h06.13.774,exp,2022.2.3,59.416868000251,
stim/493072_blockNr_1_taskNr_7_trialNr_7_spanish_recording.wav,0,123,123,142,364.60377820796566,364.60377820796566,365.10467329130626,365.1046749999514,365.1046749999514,365.1046749999514,p,3.913552041980438,407687,001,2023-01-18_10h06.13.774,exp,2022.2.3,59.416868000251,
stim/493278_blockNr_1_taskNr_6_trialNr_22_english_recording.wav,0,124,124,195,368.53730949998135,368.53730949998135,369.0211929993064,369.02011808298994,369.02011808298994,369.03813616599655,q,4.524409583013039,407687,001,2023-01-18_10h06.13.774,exp,2022.2.3,59.416868000251,
stim/493488_blockNr_1_taskNr_6_trialNr_7_english_recording.wav,0,125,125,277,373.08724525000434,373.08724525000434,373.5715278742544,373.57163337495876,373.57163337495876,373.5879464999889,q,2.389577041962184,407687,001,2023-01-18_10h06.13.774,exp,2022.2.3,59.416868000251,
stim/499444_blockNr_1_taskNr_6_trialNr_4_english_recording.wav,0,126,126,366,375.50468758295756,375.50468758295756,375.98882224927075,375.9882110829931,375.9882110829931,376.00411516596796,q,7.788311249983963,407687,001,2023-01-18_10h06.13.774,exp,2022.2.3,59.416868000251,
stim/499438_blockNr_1_taskNr_6_trialNr_20_english_recording.wav,0,127,127,347,383.3206900410005,383.3206900410005,383.80514354128974,383.8054547079955,383.8054547079955,383.821645665972,q,2.432311001000926,407687,001,2023-01-18_10h06.13.774,exp,2022.2.3,59.416868000251,
stim/499483_blockNr_1_taskNr_6_trialNr_10_english_recording.wav,0,128,128,495,385.77256887499243,385.77256887499243,386.27218154129224,386.27220116596436,386.27220116596436,386.27220116596436,p,3.4083149999496527,407687,001,2023-01-18_10h06.13.774,exp,2022.2.3,59.416868000251,
stim/493828_blockNr_1_taskNr_6_trialNr_1_english_recording.wav,0,129,129,306,389.2042807499529,389.2042807499529,389.68866558330484,389.68870070797857,389.68870070797857,389.70520062500145,p,3.912602624972351,407687,001,2023-01-18_10h06.13.774,exp,2022.2.3,59.416868000251,
stim/493310_blockNr_1_taskNr_6_trialNr_16_english_recording.wav,0,130,130,209,393.13881791598396,393.13881791598396,393.623252208269,393.62238708295627,393.62238708295627,393.6402159999707,p,30.786974916991312,407687,001,2023-01-18_10h06.13.774,exp,2022.2.3,59.416868000251,
stim/499461_blockNr_1_taskNr_7_trialNr_5_english_recording.wav,0,131,131,412,423.9558739999775,423.9558739999775,424.44045354127303,424.4397627909784,424.4397627909784,424.45569283299847,q,4.2458910010172985,407687,001,2023-01-18_10h06.13.774,exp,2022.2.3,59.416868000251,
stim/500151_blockNr_1_taskNr_7_trialNr_15_spanish_recording.wav,0,132,132,703,428.22225470800186,428.22225470800186,428.70697408330744,428.7065528749954,428.7065528749954,428.72387554094894,q,2.668786792026367,407687,001,2023-01-18_10h06.13.774,exp,2022.2.3,59.416868000251,
stim/493817_blockNr_1_taskNr_7_trialNr_6_english_recording.wav,0,133,133,304,430.9229812909616,430.9229812909616,431.40701154128766,431.40704799996456,431.40704799996456,431.4229737499845,p,2.1987837499473244,407687,001,2023-01-18_10h06.13.774,exp,2022.2.3,59.416868000251,
stim/493275_blockNr_1_taskNr_7_trialNr_22_english_recording.wav,0,134,134,183,433.139764832973,433.139764832973,433.639968499291,433.6396294159931,433.6396294159931,433.6396294159931,q,4.1699607920018025,407687,001,2023-01-18_10h06.13.774,exp,2022.2.3,59.416868000251,
stim/493275_blockNr_1_taskNr_7_trialNr_16_english_recording.wav,0,135,135,180,437.33917033299804,437.33917033299804,437.82317783326727,437.8228735830053,437.8228735830053,437.83929808298126,q,4.772918667003978,407687,001,2023-01-18_10h06.13.774,exp,2022.2.3,59.416868000251,
stim/499458_blockNr_1_taskNr_6_trialNr_5_english_recording.wav,0,136,136,403,442.13941037497716,442.13941037497716,442.6237279992609,442.62316579098115,442.62316579098115,442.64022025000304,q,3.223667500016745,407687,001,2023-01-18_10h06.13.774,exp,2022.2.3,59.416868000251,
stim/492864_blockNr_1_taskNr_6_trialNr_19_english_recording.wav,0,137,137,93,445.3905243749614,445.3905243749614,445.87474774928415,445.873756874993,445.873756874993,445.8898643749999,q,129.38406966696493,407687,001,2023-01-18_10h06.13.774,exp,2022.2.3,59.416868000251,
stim/500265_blockNr_1_taskNr_6_trialNr_13_spanish_recording.wav,0,138,138,730,574.7940280829789,574.7940280829789,575.2774104162643,575.2762593749794,575.2762593749794,575.2932767909952,p,2.6857834169641137,407687,001,2023-01-18_10h06.13.774,exp,2022.2.3,59.416868000251,
stim/499454_blockNr_1_taskNr_6_trialNr_8_english_recording.wav,0,139,139,386,577.5095660410007,577.5095660410007,577.9942534582631,577.9949330409872,577.9949330409872,578.0106589159695,q,3.028939416981302,407687,001,2023-01-18_10h06.13.774,exp,2022.2.3,59.416868000251,
stim/499454_blockNr_1_taskNr_6_trialNr_5_english_recording.wav,0,140,140,384,580.5602003749809,580.5602003749809,581.0445445412595,581.0436408329988,581.0436408329988,581.0615842909901,p,3.331926624989137,407687,001,2023-01-18_10h06.13.774,exp,2022.2.3,59.416868000251,
stim/494162_blockNr_1_taskNr_7_trialNr_18_english_recording.wav,0,141,141,319,583.9111255409662,583.9111255409662,584.4116456243034,584.4101252499968,584.4101252499968,584.4101252499968,p,2.548679917003028,407687,001,2023-01-18_10h06.13.774,exp,2022.2.3,59.416868000251,
stim/499515_blockNr_1_taskNr_7_trialNr_24_english_recording.wav,0,142,142,582,586.4766969999764,586.4766969999764,586.9613182492728,586.9609529579757,586.9609529579757,586.9769808749552,p,2.792472458037082,407687,001,2023-01-18_10h06.13.774,exp,2022.2.3,59.416868000251,
stim/500141_blockNr_1_taskNr_7_trialNr_3_spanish_recording.wav,0,143,143,700,589.2928726659738,589.2928726659738,589.778138166276,589.7767128749983,589.7767128749983,589.7946892079781,p,1.0269277510233223,407687,001,2023-01-18_10h06.13.774,exp,2022.2.3,59.416868000251,
stim/499444_blockNr_1_taskNr_6_trialNr_10_english_recording.wav,0,144,144,361,590.3435698749963,590.3435698749963,590.828759083274,590.82804712496,590.82804712496,590.8444479999598,q,5.098741750989575,407687,001,2023-01-18_10h06.13.774,exp,2022.2.3,59.416868000251,
stim/499475_blockNr_1_taskNr_6_trialNr_1_english_recording.wav,0,145,145,468,595.460314832977,595.460314832977,595.9443614582822,595.9439227499533,595.9439227499533,595.9597482499667,p,5.571774875046685,407687,001,2023-01-18_10h06.13.774,exp,2022.2.3,59.416868000251,
stim/492817_blockNr_1_taskNr_7_trialNr_13_english_recording.wav,0,146,146,19,601.0600254579913,601.0600254579913,601.5606481242983,601.5597295829793,601.5597295829793,601.5597295829793,q,9.984745208988898,407687,001,2023-01-18_10h06.13.774,exp,2022.2.3,59.416868000251,
stim/499456_blockNr_1_taskNr_7_trialNr_13_english_recording.wav,0,147,147,389,611.0779920829809,611.0779920829809,611.5616040412976,611.5609474999947,611.5609474999947,611.5780606250046,p,1.638994459004607,407687,001,2023-01-18_10h06.13.774,exp,2022.2.3,59.416868000251,
stim/499570_blockNr_1_taskNr_6_trialNr_9_english_recording.wav,0,148,148,665,612.743026290962,612.743026290962,613.2278316662821,613.2277951249853,613.2277951249853,613.2442979579791,q,2.9667740840232,407687,001,2023-01-18_10h06.13.774,exp,2022.2.3,59.416868000251,
stim/493488_blockNr_1_taskNr_6_trialNr_9_english_recording.wav,0,149,149,278,615.7271733329981,615.7271733329981,616.2115781662694,616.2113853329793,616.2113853329793,616.227786457981,q,2.665440458978992,407687,001,2023-01-18_10h06.13.774,exp,2022.2.3,59.416868000251,
stim/493272_blockNr_1_taskNr_7_trialNr_15_english_recording.wav,0,150,150,173,618.4117364579579,618.4117364579579,618.8951728332729,618.8947606659494,618.8947606659494,618.9115168749704,p,2.2231965420069173,407687,001,2023-01-18_10h06.13.774,exp,2022.2.3,59.416868000251,
stim/492817_blockNr_1_taskNr_7_trialNr_24_english_recording.wav,0,151,151,24,620.6617334159673,620.6617334159673,621.1450675412605,621.1447007909883,621.1447007909883,621.1608890409698,p,2.0806774590164423,407687,001,2023-01-18_10h06.13.774,exp,2022.2.3,59.416868000251,
stim/500081_blockNr_1_taskNr_6_trialNr_21_spanish_recording.wav,0,152,152,678,622.7618950829492,622.7618950829492,623.2447758742899,623.2448382499861,623.2448382499861,623.2617692079511,p,5.73585474997526,407687,001,2023-01-18_10h06.13.774,exp,2022.2.3,59.416868000251,
stim/492872_blockNr_1_taskNr_7_trialNr_23_spanish_recording.wav,0,153,153,103,628.5272459999542,628.5272459999542,629.0122407082642,629.01118558296,629.01118558296,629.0280449159909,p,15.498645041952841,407687,001,2023-01-18_10h06.13.774,exp,2022.2.3,59.416868000251,
stim/499570_blockNr_1_taskNr_6_trialNr_4_english_recording.wav,0,154,154,663,644.0447911249939,644.0447911249939,644.5291145412891,644.5287654999993,644.5287654999993,644.5453684579697,q,3.0164691249956377,407687,001,2023-01-18_10h06.13.774,exp,2022.2.3,59.416868000251,
stim/493215_blockNr_1_taskNr_6_trialNr_13_english_recording.wav,0,155,155,154,647.078258332971,647.078258332971,647.5622157492733,647.5617901659571,647.5617901659571,647.577468082949,q,4.681935541972052,407687,001,2023-01-18_10h06.13.774,exp,2022.2.3,59.416868000251,
stim/499532_blockNr_1_taskNr_6_trialNr_20_english_recording.wav,0,156,156,607,651.777852625004,651.777852625004,652.2625304582587,652.2626342499861,652.2626342499861,652.2787517079851,p,2.721543875988573,407687,001,2023-01-18_10h06.13.774,exp,2022.2.3,59.416868000251,
stim/499532_blockNr_1_taskNr_6_trialNr_9_english_recording.wav,0,157,157,611,654.5300114579732,654.5300114579732,655.0289279992983,655.028017665958,655.028017665958,655.0450837909593,q,3.4464024170301855,407687,001,2023-01-18_10h06.13.774,exp,2022.2.3,59.416868000251,
stim/499451_blockNr_1_taskNr_7_trialNr_24_english_recording.wav,0,158,158,376,657.9948824579478,657.9948824579478,658.4794541242707,658.4786377499695,658.4786377499695,658.4951917909784,p,2.632487958006095,407687,001,2023-01-18_10h06.13.774,exp,2022.2.3,59.416868000251,
stim/493272_blockNr_1_taskNr_7_trialNr_4_english_recording.wav,0,159,159,178,660.6451729160035,660.6451729160035,661.1291452492994,661.128578874981,661.128578874981,661.1457695409772,p,9.2094942079857,407687,001,2023-01-18_10h06.13.774,exp,2022.2.3,59.416868000251,
stim/500223_blockNr_1_taskNr_7_trialNr_11_spanish_recording.wav,0,160,160,713,669.8784137499752,669.8784137499752,670.3628526662767,670.3626748749521,670.3626748749521,670.3793854999822,q,7.416017042007297,407687,001,2023-01-18_10h06.13.774,exp,2022.2.3,59.416868000251,
stim/499561_blockNr_1_taskNr_7_trialNr_20_english_recording.wav,0,161,161,642,677.3132308329805,677.3132308329805,677.7964740412833,677.7949341249769,677.7949341249769,677.8293487079791,p,5.084713499993086,407687,001,2023-01-18_10h06.13.774,exp,2022.2.3,59.416868000251,
stim/499454_blockNr_1_taskNr_6_trialNr_18_english_recording.wav,0,162,162,380,682.4280592499999,682.4280592499999,682.9130821242986,682.9128596659866,682.9128596659866,682.9294671659591,p,4.620467500004452,407687,001,2023-01-18_10h06.13.774,exp,2022.2.3,59.416868000251,
stim/500271_blockNr_1_taskNr_6_trialNr_11_spanish_recording.wav,0,163,163,739,687.1220990409493,687.1220990409493,687.5797866663022,687.5795251659583,687.5795251659583,687.6294779159944,q,2.9884668339509517,407687,001,2023-01-18_10h06.13.774,exp,2022.2.3,59.416868000251,
stim/499570_blockNr_1_taskNr_6_trialNr_16_english_recording.wav,0,164,164,657,690.1294499999494,690.1294499999494,690.6138141242961,690.6132934999769,690.6132934999769,690.6297182909911,q,6.89868112601107,407687,001,2023-01-18_10h06.13.774,exp,2022.2.3,59.416868000251,
stim/499570_blockNr_1_taskNr_6_trialNr_24_english_recording.wav,0,165,165,661,697.0456416659872,697.0456416659872,697.5455904992821,697.5467191659845,697.5467191659845,697.5467191659845,q,3.1419245419674553,407687,001,2023-01-18_10h06.13.774,exp,2022.2.3,59.416868000251,
stim/494216_blockNr_1_taskNr_6_trialNr_22_english_recording.wav,0,166,166,337,700.2122938329703,700.2122938329703,700.6970430832996,700.6967655829503,700.6967655829503,700.7127799159498,q,3.3441621669917367,407687,001,2023-01-18_10h06.13.774,exp,2022.2.3,59.416868000251,
stim/499441_blockNr_1_taskNr_7_trialNr_13_english_recording.wav,0,167,167,352,703.579343499965,703.579343499965,704.0634116662957,704.0631060409942,704.0631060409942,704.079646750004,q,2.257110834005289,407687,001,2023-01-18_10h06.13.774,exp,2022.2.3,59.416868000251,
stim/493414_blockNr_1_taskNr_7_trialNr_22_english_recording.wav,0,168,168,229,705.8628458330058,705.8628458330058,706.3466270832985,706.3468833329971,706.3468833329971,706.3635401659994,p,3.108106833009515,407687,001,2023-01-18_10h06.13.774,exp,2022.2.3,59.416868000251,
stim/499512_blockNr_1_taskNr_7_trialNr_21_english_recording.wav,0,169,169,563,708.9960218750057,708.9960218750057,709.4797399992647,709.4804732499761,709.4804732499761,709.4971788330004,q,2.8824460419709794,407687,001,2023-01-18_10h06.13.774,exp,2022.2.3,59.416868000251,
stim/493275_blockNr_1_taskNr_7_trialNr_4_english_recording.wav,0,170,170,185,711.8963051249739,711.8963051249739,712.3805452082713,712.3800952499732,712.3800952499732,712.3973949579522,q,3.4548312080441974,407687,001,2023-01-18_10h06.13.774,exp,2022.2.3,59.416868000251,
stim/499488_blockNr_1_taskNr_7_trialNr_1_english_recording.wav,0,171,171,504,715.3801728749531,715.3801728749531,715.8638731663057,715.8640412499662,715.8640412499662,715.8800659159897,q,2.8673676670296118,407687,001,2023-01-18_10h06.13.774,exp,2022.2.3,59.416868000251,
stim/494205_blockNr_1_taskNr_6_trialNr_7_english_recording.wav,0,172,172,330,718.2795651250053,718.2795651250053,718.764008874289,718.7640394159826,718.7640394159826,718.7806830829941,q,3.4499428760027513,407687,001,2023-01-18_10h06.13.774,exp,2022.2.3,59.416868000251,
stim/492825_blockNr_1_taskNr_7_trialNr_19_english_recording.wav,0,173,173,47,721.7469922499731,721.7469922499731,722.2472448332526,722.2465832079761,722.2465832079761,722.2465832079761,q,2.9616467500454746,407687,001,2023-01-18_10h06.13.774,exp,2022.2.3,59.416868000251,
stim/493297_blockNr_1_taskNr_7_trialNr_24_english_recording.wav,0,174,174,203,724.7301248330041,724.7301248330041,725.2145709582662,725.2136069159606,725.2136069159606,725.2293303749757,p,2.9817659580148757,407687,001,2023-01-18_10h06.13.774,exp,2022.2.3,59.416868000251,
stim/493453_blockNr_1_taskNr_6_trialNr_13_english_recording.wav,0,175,175,254,727.7310275829514,727.7310275829514,728.2147549163026,728.2141087079654,728.2141087079654,728.2307900830056,p,4.352421374991536,407687,001,2023-01-18_10h06.13.774,exp,2022.2.3,59.416868000251,
stim/493278_blockNr_1_taskNr_6_trialNr_17_english_recording.wav,0,176,176,191,732.1131799159921,732.1131799159921,732.5975728332821,732.5976812909939,732.5976812909939,732.6144152079942,p,9.404101833992172,407687,001,2023-01-18_10h06.13.774,exp,2022.2.3,59.416868000251,
stim/493499_blockNr_1_taskNr_6_trialNr_4_english_recording.wav,0,177,177,286,741.5467594579677,741.5467594579677,742.0314594582712,742.0306921659503,742.0306921659503,742.0475952079869,q,4.101131166971754,407687,001,2023-01-18_10h06.13.774,exp,2022.2.3,59.416868000251,
stim/499444_blockNr_1_taskNr_6_trialNr_1_english_recording.wav,0,178,178,360,745.663682415965,745.663682415965,746.1646850833029,746.1639307909645,746.1639307909645,746.1639307909645,q,7.183181958971545,407687,001,2023-01-18_10h06.13.774,exp,2022.2.3,59.416868000251,
stim/499441_blockNr_1_taskNr_7_trialNr_12_english_recording.wav,0,179,179,351,752.8644557499792,752.8644557499792,753.3645550832559,753.3645062909927,753.3645062909927,753.3645062909927,p,9.725384416989982,407687,001,2023-01-18_10h06.13.774,exp,2022.2.3,59.416868000251,
stim/499525_blockNr_1_taskNr_6_trialNr_23_english_recording.wav,0,180,180,598,762.6153011659626,762.6153011659626,763.0981486663047,763.096898082993,763.096898082993,763.1309979999787,q,20.91379862499889,407687,001,2023-01-18_10h06.13.774,exp,2022.2.3,59.416868000251,
stim/493310_blockNr_1_taskNr_6_trialNr_10_english_recording.wav,0,181,181,207,783.5482872079592,783.5482872079592,784.0324213742686,784.0308274159906,784.0308274159906,784.0519108749577,q,4.732090874982532,407687,001,2023-01-18_10h06.13.774,exp,2022.2.3,59.416868000251,
stim/492835_blockNr_1_taskNr_6_trialNr_3_spanish_recording.wav,0,182,182,70,788.2977209999808,788.2977209999808,788.782560874283,788.7823657079716,788.7823657079716,788.7985595409991,q,28.71370212500915,407687,001,2023-01-18_10h06.13.774,exp,2022.2.3,59.416868000251,
stim/500100_blockNr_1_taskNr_6_trialNr_7_spanish_recording.wav,0,183,183,691,817.0324555409607,817.0324555409607,817.5160027082718,817.5160340829752,817.5160340829752,817.5326509999577,q,6.637151416973211,407687,001,2023-01-18_10h06.13.774,exp,2022.2.3,59.416868000251,
stim/499458_blockNr_1_taskNr_6_trialNr_20_english_recording.wav,0,184,184,399,823.698903749988,823.698903749988,824.1834701662708,824.1831949999905,824.1831949999905,824.1992250409676,q,2.095954999967944,407687,001,2023-01-18_10h06.13.774,exp,2022.2.3,59.416868000251,
stim/499514_blockNr_1_taskNr_7_trialNr_24_english_recording.wav,0,185,185,572,825.8160014579771,825.8160014579771,826.3005242493061,826.2984203749802,826.2984203749802,826.317075332976,q,2.1514604589901865,407687,001,2023-01-18_10h06.13.774,exp,2022.2.3,59.416868000251,
stim/492817_blockNr_1_taskNr_7_trialNr_2_english_recording.wav,0,186,186,22,827.9988938749884,827.9988938749884,828.4999532913032,828.5003522909828,828.5003522909828,828.5003522909828,p,2.6253272509784438,407687,001,2023-01-18_10h06.13.774,exp,2022.2.3,59.416868000251,
stim/492909_blockNr_1_taskNr_6_trialNr_16_english_recording.wav,0,187,187,129,830.6502104579704,830.6502104579704,831.1336305412522,831.1325212499942,831.1325212499942,831.1499170829775,q,3.964887832989916,407687,001,2023-01-18_10h06.13.774,exp,2022.2.3,59.416868000251,
stim/499515_blockNr_1_taskNr_7_trialNr_23_english_recording.wav,0,188,188,581,834.6329844159773,834.6329844159773,835.1334512082801,835.1329007909517,835.1329007909517,835.1329007909517,p,2.4044344589929096,407687,001,2023-01-18_10h06.13.774,exp,2022.2.3,59.416868000251,
stim/499507_blockNr_1_taskNr_7_trialNr_15_english_recording.wav,0,189,189,542,837.0661532079685,837.0661532079685,837.5669172492751,837.5665107079549,837.5665107079549,837.5665107079549,q,2.6117076259688474,407687,001,2023-01-18_10h06.13.774,exp,2022.2.3,59.416868000251,
stim/493278_blockNr_1_taskNr_6_trialNr_4_english_recording.wav,0,190,190,196,839.6996397500043,839.6996397500043,840.1835347493004,840.1834674159763,840.1834674159763,840.1997415829683,p,3.377674874966033,407687,001,2023-01-18_10h06.13.774,exp,2022.2.3,59.416868000251,
stim/492882_blockNr_1_taskNr_6_trialNr_24_english_recording.wav,0,191,191,123,843.0994674999965,843.0994674999965,843.5838687082694,843.5838344999938,843.5838344999938,843.5997863329831,p,2.452249667025171,407687,001,2023-01-18_10h06.13.774,exp,2022.2.3,59.416868000251,
stim/499497_blockNr_1_taskNr_6_trialNr_19_english_recording.wav,0,192,192,534,845.5826497079688,845.5826497079688,846.0674838742532,846.0663752499968,846.0663752499968,846.0839967909851,q,2.174259501043707,407687,001,2023-01-18_10h06.13.774,exp,2022.2.3,59.416868000251,
stim/499466_blockNr_1_taskNr_6_trialNr_22_english_recording.wav,0,193,193,420,847.7842374579632,847.7842374579632,848.2675047083001,848.2663298329571,848.2663298329571,848.2836001659743,q,2.8986620829673484,407687,001,2023-01-18_10h06.13.774,exp,2022.2.3,59.416868000251,
stim/492825_blockNr_1_taskNr_7_trialNr_8_english_recording.wav,0,194,194,52,850.6995669159805,850.6995669159805,851.1840820413024,851.1838681249646,851.1838681249646,851.2000021659769,p,2.392332458985038,407687,001,2023-01-18_10h06.13.774,exp,2022.2.3,59.416868000251,
stim/500298_blockNr_1_taskNr_7_trialNr_11_spanish_recording.wav,0,195,195,747,853.1162427499657,853.1162427499657,853.6005509162612,853.5997871659929,853.5997871659929,853.6159681249992,p,2.0079007919994183,407687,001,2023-01-18_10h06.13.774,exp,2022.2.3,59.416868000251,
stim/493522_blockNr_1_taskNr_7_trialNr_5_spanish_recording.wav,0,196,196,295,855.1494995409739,855.1494995409739,855.6339912492956,855.6339122499921,855.6339122499921,855.6508184580016,q,2.1489775420050137,407687,001,2023-01-18_10h06.13.774,exp,2022.2.3,59.416868000251,
stim/499536_blockNr_1_taskNr_6_trialNr_2_english_recording.wav,0,197,197,615,857.316525125003,857.316525125003,857.8007321242883,857.7999426659662,857.7999426659662,857.8172852499993,p,2.8322575829806738,407687,001,2023-01-18_10h06.13.774,exp,2022.2.3,59.416868000251,
stim/499536_blockNr_1_taskNr_6_trialNr_11_english_recording.wav,0,198,198,612,860.1670630829758,860.1670630829758,860.6505340412666,860.650291332975,860.650291332975,860.6676956659649,p,2.3568813760066405,407687,001,2023-01-18_10h06.13.774,exp,2022.2.3,59.416868000251,
stim/500081_blockNr_1_taskNr_6_trialNr_16_spanish_recording.wav,0,199,199,675,862.5499828750035,862.5499828750035,863.0341367912886,863.0341038329643,863.0341038329643,863.0506987079862,q,2.6996801670175046,407687,001,2023-01-18_10h06.13.774,exp,2022.2.3,59.416868000251,
stim/493275_blockNr_1_taskNr_7_trialNr_8_english_recording.wav,0,200,200,187,865.26622125,865.26622125,865.7502760832838,865.7507580829551,865.7507580829551,865.7673247079947,q,5.569122667016927,407687,001,2023-01-18_10h06.13.774,exp,2022.2.3,59.416868000251,
stim/493232_blockNr_1_taskNr_6_trialNr_12_spanish_recording.wav,0,201,201,163,870.866458290955,870.866458290955,871.350737833284,871.3511016659904,871.3511016659904,871.3675206250045,q,2.3497960419626907,407687,001,2023-01-18_10h06.13.774,exp,2022.2.3,59.416868000251,
stim/492880_blockNr_1_taskNr_7_trialNr_16_english_recording.wav,0,202,202,110,873.2344184159883,873.2344184159883,873.7180936242628,873.7177047499572,873.7177047499572,873.7340175829595,p,2.881713749957271,407687,001,2023-01-18_10h06.13.774,exp,2022.2.3,59.416868000251,
stim/499473_blockNr_1_taskNr_6_trialNr_4_english_recording.wav,0,203,203,456,876.1339142909856,876.1339142909856,876.6344359582697,876.6344152909587,876.6344152909587,876.6344152909587,p,3.0117123749805614,407687,001,2023-01-18_10h06.13.774,exp,2022.2.3,59.416868000251,
stim/492813_blockNr_1_taskNr_6_trialNr_10_english_recording.wav,0,204,204,1,879.167225082987,879.167225082987,879.6514908333018,879.6507744579576,879.6507744579576,879.6680227500037,p,2.2902921259519644,407687,001,2023-01-18_10h06.13.774,exp,2022.2.3,59.416868000251,
stim/499444_blockNr_1_taskNr_6_trialNr_5_english_recording.wav,0,205,205,367,881.4837762079551,881.4837762079551,881.968300958263,881.9680327909882,881.9680327909882,881.9847852499806,p,4.803546584036667,407687,001,2023-01-18_10h06.13.774,exp,2022.2.3,59.416868000251,
stim/493215_blockNr_1_taskNr_6_trialNr_14_english_recording.wav,0,206,206,155,886.3180094579584,886.3180094579584,886.8176231662917,886.8173216249561,886.8173216249561,886.8173216249561,q,1.9815700839972124,407687,001,2023-01-18_10h06.13.774,exp,2022.2.3,59.416868000251,
stim/499451_blockNr_1_taskNr_7_trialNr_16_english_recording.wav,0,207,207,373,888.3172512909514,888.3172512909514,888.8014417493075,888.8013136249501,888.8013136249501,888.8182185000041,p,1.8397355829947628,407687,001,2023-01-18_10h06.13.774,exp,2022.2.3,59.416868000251,
stim/500298_blockNr_1_taskNr_7_trialNr_9_spanish_recording.wav,0,208,208,755,890.1841333750053,890.1841333750053,890.6684452912712,890.667966790963,890.667966790963,890.684941457992,q,3.031960209016688,407687,001,2023-01-18_10h06.13.774,exp,2022.2.3,59.416868000251,
stim/493272_blockNr_1_taskNr_7_trialNr_19_english_recording.wav,0,209,209,175,893.2348512079916,893.2348512079916,893.718473749276,893.718283166003,893.718283166003,893.7343513329979,q,2.788252125028521,407687,001,2023-01-18_10h06.13.774,exp,2022.2.3,59.416868000251,
stim/494162_blockNr_1_taskNr_7_trialNr_9_english_recording.wav,0,210,210,323,896.0509636249626,896.0509636249626,896.5349424162821,896.5345126659959,896.5345126659959,896.5514508329798,q,2.298093249963131,407687,001,2023-01-18_10h06.13.774,exp,2022.2.3,59.416868000251,
stim/500100_blockNr_1_taskNr_6_trialNr_3_spanish_recording.wav,0,211,211,688,898.368062915979,898.368062915979,898.852034416265,898.85177083296,898.85177083296,898.8679687499534,q,5.194541583012324,407687,001,2023-01-18_10h06.13.774,exp,2022.2.3,59.416868000251,
stim/493232_blockNr_1_taskNr_6_trialNr_14_spanish_recording.wav,0,212,212,164,903.5855607079575,903.5855607079575,904.0686439582903,904.0682550409692,904.0682550409692,904.0852519999607,q,2.021349250979256,407687,001,2023-01-18_10h06.13.774,exp,2022.2.3,59.416868000251,
stim/493454_blockNr_1_taskNr_6_trialNr_13_english_recording.wav,0,213,213,262,905.6341918329708,905.6341918329708,906.1187757082923,906.1185151659884,906.1185151659884,906.134848082962,p,2.0588885420002043,407687,001,2023-01-18_10h06.13.774,exp,2022.2.3,59.416868000251,
stim/493522_blockNr_1_taskNr_7_trialNr_15_spanish_recording.wav,0,214,214,291,907.7179174579796,907.7179174579796,908.2182772912608,908.218035540951,908.218035540951,908.218035540951,q,1.8522587500046939,407687,001,2023-01-18_10h06.13.774,exp,2022.2.3,59.416868000251,
stim/493310_blockNr_1_taskNr_6_trialNr_13_english_recording.wav,0,215,215,208,909.6011671249871,909.6011671249871,910.0854892082687,910.0849056249717,910.0849056249717,910.1015997909708,q,2.960231000033673,407687,001,2023-01-18_10h06.13.774,exp,2022.2.3,59.416868000251,
stim/499525_blockNr_1_taskNr_6_trialNr_15_english_recording.wav,0,216,216,596,912.5845782909892,912.5845782909892,913.0694761242892,913.0694464159897,913.0694464159897,913.0851005409495,q,1.9298964589834213,407687,001,2023-01-18_10h06.13.774,exp,2022.2.3,59.416868000251,
stim/499497_blockNr_1_taskNr_6_trialNr_16_english_recording.wav,0,217,217,533,914.5358535409905,914.5358535409905,915.0188602912647,915.0185077909846,915.0185077909846,915.0347312910017,q,1.6783302500261925,407687,001,2023-01-18_10h06.13.774,exp,2022.2.3,59.416868000251,
stim/492909_blockNr_1_taskNr_6_trialNr_2_english_recording.wav,0,218,218,130,916.235109415953,916.235109415953,916.7186110412993,916.7183572909562,916.7183572909562,916.7351502079982,q,2.333981167001184,407687,001,2023-01-18_10h06.13.774,exp,2022.2.3,59.416868000251,
stim/499480_blockNr_1_taskNr_6_trialNr_5_english_recording.wav,0,219,219,493,918.5844469159492,918.5844469159492,919.0855001662683,919.0853634160012,919.0853634160012,919.0853634160012,p,2.344479457999114,407687,001,2023-01-18_10h06.13.774,exp,2022.2.3,59.416868000251,
stim/499472_blockNr_1_taskNr_6_trialNr_10_english_recording.wav,0,220,220,442,920.9514775829739,920.9514775829739,921.4355173742922,921.4356318749487,921.4356318749487,921.4522852079826,p,2.4521256260341033,407687,001,2023-01-18_10h06.13.774,exp,2022.2.3,59.416868000251,
stim/493310_blockNr_1_taskNr_6_trialNr_2_english_recording.wav,0,221,221,211,923.4343861249508,923.4343861249508,923.9192910413083,923.9185102499905,923.9185102499905,923.9351502079517,q,3.3121105000027455,407687,001,2023-01-18_10h06.13.774,exp,2022.2.3,59.416868000251,
stim/494216_blockNr_1_taskNr_6_trialNr_6_english_recording.wav,0,222,222,340,926.7681644999539,926.7681644999539,927.2526239162951,927.2525110409479,927.2525110409479,927.2690431249794,p,4.605545707978308,407687,001,2023-01-18_10h06.13.774,exp,2022.2.3,59.416868000251,
stim/493522_blockNr_1_taskNr_7_trialNr_11_spanish_recording.wav,0,223,223,289,931.4031171249808,931.4031171249808,931.8848338333016,931.885664707981,931.885664707981,931.902479249984,q,7.497944458969869,407687,001,2023-01-18_10h06.13.774,exp,2022.2.3,59.416868000251,
stim/493215_blockNr_1_taskNr_6_trialNr_21_english_recording.wav,0,224,224,158,938.9190391659504,938.9190391659504,939.4191140412993,939.4194987079827,939.4194987079827,939.4194987079827,q,2.4828784170094877,407687,001,2023-01-18_10h06.13.774,exp,2022.2.3,59.416868000251,
stim/494205_blockNr_1_taskNr_6_trialNr_14_english_recording.wav,0,225,225,324,941.4186420409824,941.4186420409824,941.9030077913019,941.9021722499747,941.9021722499747,941.91945175,q,2.9958405420184135,407687,001,2023-01-18_10h06.13.774,exp,2022.2.3,59.416868000251,
stim/500225_blockNr_1_taskNr_6_trialNr_4_spanish_recording.wav,0,226,226,726,944.4353041659924,944.4353041659924,944.9361755412945,944.9355335409637,944.9355335409637,944.9355335409637,q,2.237341000989545,407687,001,2023-01-18_10h06.13.774,exp,2022.2.3,59.416868000251,
stim/499474_blockNr_1_taskNr_6_trialNr_3_english_recording.wav,0,227,227,467,946.7026879159966,946.7026879159966,947.1863865832972,947.1859547909698,947.1859547909698,947.202400332957,p,2.7037131669931114,407687,001,2023-01-18_10h06.13.774,exp,2022.2.3,59.416868000251,
stim/494216_blockNr_1_taskNr_6_trialNr_24_english_recording.wav,0,228,228,338,949.4360447079525,949.4360447079525,949.920158999256,949.9195477909525,949.9195477909525,949.9359768329887,q,2.759906209015753,407687,001,2023-01-18_10h06.13.774,exp,2022.2.3,59.416868000251,
stim/500401_blockNr_1_taskNr_6_trialNr_2_spanish_recording.wav,0,229,229,767,952.2188515829621,952.2188515829621,952.702829166298,952.7027454159688,952.7027454159688,952.7195194999804,q,2.079810000024736,407687,001,2023-01-18_10h06.13.774,exp,2022.2.3,59.416868000251,
stim/492813_blockNr_1_taskNr_6_trialNr_6_english_recording.wav,0,230,230,7,954.3187542499509,954.3187542499509,954.8033671662968,954.8030669159489,954.8030669159489,954.8197367499815,q,2.741632082965225,407687,001,2023-01-18_10h06.13.774,exp,2022.2.3,59.416868000251,
stim/499467_blockNr_1_taskNr_7_trialNr_2_english_recording.wav,0,231,231,427,957.08578699996,957.08578699996,957.5699262082751,957.5698936249828,957.5698936249828,957.5865937499912,p,2.840100707951933,407687,001,2023-01-18_10h06.13.774,exp,2022.2.3,59.416868000251,
stim/493215_blockNr_1_taskNr_6_trialNr_5_english_recording.wav,0,232,232,161,959.9523958749487,959.9523958749487,960.4368779162585,960.4368699999759,960.4368699999759,960.4533539160038,q,2.5485572919715196,407687,001,2023-01-18_10h06.13.774,exp,2022.2.3,59.416868000251,
stim/493414_blockNr_1_taskNr_7_trialNr_15_english_recording.wav,0,233,233,226,962.5192662499612,962.5192662499612,963.0034939992881,963.0028863750049,963.0028863750049,963.0196277909563,q,2.0348917089868337,407687,001,2023-01-18_10h06.13.774,exp,2022.2.3,59.416868000251,
stim/500225_blockNr_1_taskNr_6_trialNr_18_spanish_recording.wav,0,234,234,721,964.5861198329949,964.5861198329949,965.0703213742643,965.0697037499631,965.0697037499631,965.0868681249558,q,1.9105480830185115,407687,001,2023-01-18_10h06.13.774,exp,2022.2.3,59.416868000251,
stim/494162_blockNr_1_taskNr_7_trialNr_12_english_recording.wav,0,235,235,316,966.5196430829819,966.5196430829819,967.003290333302,967.003766040958,967.003766040958,967.0201501249685,p,1.6907392510329373,407687,001,2023-01-18_10h06.13.774,exp,2022.2.3,59.416868000251,
stim/492909_blockNr_1_taskNr_6_trialNr_11_english_recording.wav,0,236,236,127,968.2362570829573,968.2362570829573,968.7191301662649,968.7199816249777,968.7199816249777,968.7364503749995,p,3.112925791996531,407687,001,2023-01-18_10h06.13.774,exp,2022.2.3,59.416868000251,
stim/499473_blockNr_1_taskNr_6_trialNr_3_english_recording.wav,0,237,237,455,971.369303665997,971.369303665997,971.8701601243054,971.8698785000015,971.8698785000015,971.8698785000015,p,2.867722958966624,407687,001,2023-01-18_10h06.13.774,exp,2022.2.3,59.416868000251,
stim/499532_blockNr_1_taskNr_6_trialNr_16_english_recording.wav,0,238,238,605,974.2528102079523,974.2528102079523,974.754015124269,974.7535194579978,974.7535194579978,974.7535194579978,q,2.40250250097597,407687,001,2023-01-18_10h06.13.774,exp,2022.2.3,59.416868000251,
stim/500081_blockNr_1_taskNr_6_trialNr_3_spanish_recording.wav,0,239,239,680,976.686509541003,976.686509541003,977.1702944992983,977.1702748749522,977.1702748749522,977.1867884579697,q,4.443014416960068,407687,001,2023-01-18_10h06.13.774,exp,2022.2.3,59.416868000251,
stim/493072_blockNr_1_taskNr_7_trialNr_10_spanish_recording.wav,0,240,240,135,981.1526775829843,981.1526775829843,981.6371679162664,981.6368013749598,981.6368013749598,981.653412790969,q,2.1229852499673143,407687,001,2023-01-18_10h06.13.774,exp,2022.2.3,59.416868000251,
stim/500151_blockNr_1_taskNr_7_trialNr_17_spanish_recording.wav,0,241,241,704,983.3029873750056,983.3029873750056,983.803999041306,983.8039109999663,983.8039109999663,983.8039109999663,q,4.1321317499969155,407687,001,2023-01-18_10h06.13.774,exp,2022.2.3,59.416868000251,
stim/499557_blockNr_1_taskNr_6_trialNr_5_english_recording.wav,0,242,242,635,987.4528107909719,987.4528107909719,987.9373607912974,987.9366421249579,987.9366421249579,987.9537400829722,p,1.8998939580051228,407687,001,2023-01-18_10h06.13.774,exp,2022.2.3,59.416868000251,
stim/499567_blockNr_1_taskNr_7_trialNr_10_english_recording.wav,0,243,243,648,989.3698699160013,989.3698699160013,989.8543431242986,989.8525200829608,989.8525200829608,989.8706311249989,q,3.5014980009873398,407687,001,2023-01-18_10h06.13.774,exp,2022.2.3,59.416868000251,
stim/499475_blockNr_1_taskNr_6_trialNr_12_english_recording.wav,0,244,244,469,992.8864012910053,992.8864012910053,993.387513374252,993.3874167499598,993.3874167499598,993.3874167499598,p,2.148064751003403,407687,001,2023-01-18_10h06.13.774,exp,2022.2.3,59.416868000251,
stim/499497_blockNr_1_taskNr_6_trialNr_3_english_recording.wav,0,245,245,537,995.0533625409589,995.0533625409589,995.5542570412915,995.5540757909766,995.5540757909766,995.5540757909766,q,2.1318225000286475,407687,001,2023-01-18_10h06.13.774,exp,2022.2.3,59.416868000251,
stim/492856_blockNr_1_taskNr_7_trialNr_10_english_recording.wav,0,246,246,82,997.2031697079656,997.2031697079656,997.6876869992527,997.6875968749519,997.6875968749519,997.7041602079989,q,2.6104045010288246,407687,001,2023-01-18_10h06.13.774,exp,2022.2.3,59.416868000251,
stim/493453_blockNr_1_taskNr_6_trialNr_23_english_recording.wav,0,247,247,258,999.836858374998,999.836858374998,1000.3211762912513,1000.3207109159557,1000.3207109159557,1000.3374439159525,q,4.601096792030148,407687,001,2023-01-18_10h06.13.774,exp,2022.2.3,59.416868000251,
stim/500081_blockNr_1_taskNr_6_trialNr_24_spanish_recording.wav,0,248,248,679,1004.4537444159505,1004.4537444159505,1004.9379616242775,1004.9377638329752,1004.9377638329752,1004.9541726249736,q,2.3939942509750836,407687,001,2023-01-18_10h06.13.774,exp,2022.2.3,59.416868000251,
stim/500401_blockNr_1_taskNr_6_trialNr_8_spanish_recording.wav,0,249,249,773,1006.871074374998,1006.871074374998,1007.3551069162611,1007.3545139579801,1007.3545139579801,1007.3708365829661,q,2.190936667029746,407687,001,2023-01-18_10h06.13.774,exp,2022.2.3,59.416868000251,
stim/499441_blockNr_1_taskNr_7_trialNr_19_english_recording.wav,0,250,250,356,1009.0868212499772,1009.0868212499772,1009.5710741662595,1009.5711675829953,1009.5711675829953,1009.5874872499844,p,1.6712655840092339,407687,001,2023-01-18_10h06.13.774,exp,2022.2.3,59.416868000251,
stim/499488_blockNr_1_taskNr_7_trialNr_15_english_recording.wav,0,251,251,507,1010.7870330409496,1010.7870330409496,1011.2874381662521,1011.2875777909649,1011.2875777909649,1011.2875777909649,q,3.821127334027551,407687,001,2023-01-18_10h06.13.774,exp,2022.2.3,59.416868000251,
stim/493151_blockNr_1_taskNr_7_trialNr_2_spanish_recording.wav,0,252,252,146,1014.6370074999868,1014.6370074999868,1015.121820208308,1015.1213542909827,1015.1213542909827,1015.1374534999486,p,1.9024802079657093,407687,001,2023-01-18_10h06.13.774,exp,2022.2.3,59.416868000251,
stim/499475_blockNr_1_taskNr_6_trialNr_6_english_recording.wav,0,253,253,476,1016.5706495829509,1016.5706495829509,1017.054917624261,1017.0540267499746,1017.0540267499746,1017.0714263329864,p,2.1740234589669853,407687,001,2023-01-18_10h06.13.774,exp,2022.2.3,59.416868000251,
stim/493445_blockNr_1_taskNr_6_trialNr_2_english_recording.wav,0,254,254,238,1018.7703066659742,1018.7703066659742,1019.2552694993035,1019.2549607499968,1019.2549607499968,1019.2703211659682,p,2.1154371249722317,407687,001,2023-01-18_10h06.13.774,exp,2022.2.3,59.416868000251,
stim/493278_blockNr_1_taskNr_6_trialNr_2_english_recording.wav,0,255,255,193,1020.9040105409804,1020.9040105409804,1021.3884955412766,1021.3882976659806,1021.3882976659806,1021.4047085829661,p,3.089742459007539,407687,001,2023-01-18_10h06.13.774,exp,2022.2.3,59.416868000251,
stim/499438_blockNr_1_taskNr_6_trialNr_3_english_recording.wav,0,256,256,349,1024.020657999965,1024.020657999965,1024.504923999292,1024.5051404580008,1024.5051404580008,1024.5200934999739,q,2.479959041986149,407687,001,2023-01-18_10h06.13.774,exp,2022.2.3,59.416868000251,
stim/500301_blockNr_1_taskNr_6_trialNr_20_spanish_recording.wav,0,257,257,761,1026.5204539579572,1026.5204539579572,1027.020832416293,1027.0208120829775,1027.0208120829775,1027.0208120829775,p,3.015933958988171,407687,001,2023-01-18_10h06.13.774,exp,2022.2.3,59.416868000251,
stim/499488_blockNr_1_taskNr_7_trialNr_22_english_recording.wav,0,258,258,509,1029.5535185000044,1029.5535185000044,1030.0381942493084,1030.0381692079827,1030.0381692079827,1030.0550501249963,p,2.5835341670317575,407687,001,2023-01-18_10h06.13.774,exp,2022.2.3,59.416868000251,
stim/499472_blockNr_1_taskNr_6_trialNr_3_english_recording.wav,0,259,259,447,1032.1545453749713,1032.1545453749713,1032.6553198742738,1032.6553154999856,1032.6553154999856,1032.6553154999856,q,2.9397640000097454,407687,001,2023-01-18_10h06.13.774,exp,2022.2.3,59.416868000251,
stim/494162_blockNr_1_taskNr_7_trialNr_17_english_recording.wav,0,260,260,318,1035.1208779159933,1035.1208779159933,1035.605296624283,1035.6051089160028,1035.6051089160028,1035.621760124981,q,1.7780317090218887,407687,001,2023-01-18_10h06.13.774,exp,2022.2.3,59.416868000251,
stim/493499_blockNr_1_taskNr_6_trialNr_1_english_recording.wav,0,261,261,279,1036.9221039160038,1036.9221039160038,1037.4049584162829,1037.4047243329696,1037.4047243329696,1037.4214887080016,q,1.7312746670213528,407687,001,2023-01-18_10h06.13.774,exp,2022.2.3,59.416868000251,
stim/492813_blockNr_1_taskNr_6_trialNr_3_english_recording.wav,0,262,262,6,1038.6715027079917,1038.6715027079917,1039.1552899163041,1039.1548599999514,1039.1548599999514,1039.171862499963,p,4.6330307080061175,407687,001,2023-01-18_10h06.13.774,exp,2022.2.3,59.416868000251,
stim/500141_blockNr_1_taskNr_7_trialNr_15_spanish_recording.wav,0,263,263,696,1043.3209854159504,1043.3209854159504,1043.805477749306,1043.8052382079768,1043.8052382079768,1043.8215981659596,q,2.7753038340015337,407687,001,2023-01-18_10h06.13.774,exp,2022.2.3,59.416868000251,
stim/499441_blockNr_1_taskNr_7_trialNr_14_english_recording.wav,0,264,264,353,1046.1206753749866,1046.1206753749866,1046.6054562493052,1046.6054431659868,1046.6054431659868,1046.6220546659897,q,3.1926687090308405,407687,001,2023-01-18_10h06.13.774,exp,2022.2.3,59.416868000251,
stim/492882_blockNr_1_taskNr_6_trialNr_23_english_recording.wav,0,265,265,122,1049.3379036249826,1049.3379036249826,1049.822660041257,1049.8221602909616,1049.8221602909616,1049.8384664999903,q,3.0930485419812612,407687,001,2023-01-18_10h06.13.774,exp,2022.2.3,59.416868000251,
stim/499495_blockNr_1_taskNr_6_trialNr_6_english_recording.wav,0,266,266,529,1052.454617249954,1052.454617249954,1052.9387405832938,1052.938816207985,1052.938816207985,1052.9551276249695,p,2.54515345901018,407687,001,2023-01-18_10h06.13.774,exp,2022.2.3,59.416868000251,
stim/499514_blockNr_1_taskNr_7_trialNr_3_english_recording.wav,0,267,267,573,1055.02199774998,1055.02199774998,1055.5052132083044,1055.5055023329915,1055.5055023329915,1055.521846040967,q,6.68900712497998,407687,001,2023-01-18_10h06.13.774,exp,2022.2.3,59.416868000251,
stim/500301_blockNr_1_taskNr_6_trialNr_11_spanish_recording.wav,0,268,268,757,1061.7387360829744,1061.7387360829744,1062.239102083299,1062.2386482079746,1062.2386482079746,1062.2386482079746,q,1.7055787509889342,407687,001,2023-01-18_10h06.13.774,exp,2022.2.3,59.416868000251,
stim/493828_blockNr_1_taskNr_6_trialNr_13_english_recording.wav,0,269,269,308,1063.4713955409825,1063.4713955409825,1063.9728643332899,1063.971938957984,1063.971938957984,1063.971938957984,q,1.9321676259860396,407687,001,2023-01-18_10h06.13.774,exp,2022.2.3,59.416868000251,
stim/499438_blockNr_1_taskNr_6_trialNr_9_english_recording.wav,0,270,270,350,1065.4211571659544,1065.4211571659544,1065.9059946662571,1065.9060575829935,1065.9060575829935,1065.922495707986,q,1.882519541948568,407687,001,2023-01-18_10h06.13.774,exp,2022.2.3,59.416868000251,
stim/499451_blockNr_1_taskNr_7_trialNr_14_english_recording.wav,0,271,271,372,1067.322878749983,1067.322878749983,1067.8064997912559,1067.8062797909952,1067.8062797909952,1067.8224486659747,q,1.9982209589798003,407687,001,2023-01-18_10h06.13.774,exp,2022.2.3,59.416868000251,
stim/493488_blockNr_1_taskNr_6_trialNr_3_english_recording.wav,0,272,272,275,1069.3383249579929,1069.3383249579929,1069.8387809162784,1069.8394384579733,1069.8394384579733,1069.8394384579733,q,2.02716783300275,407687,001,2023-01-18_10h06.13.774,exp,2022.2.3,59.416868000251,
stim/499474_blockNr_1_taskNr_6_trialNr_23_english_recording.wav,0,273,273,466,1071.3884892499773,1071.3884892499773,1071.8729677082563,1071.8730375409941,1071.8730375409941,1071.8879217909998,p,2.6321046669618227,407687,001,2023-01-18_10h06.13.774,exp,2022.2.3,59.416868000251,
stim/493297_blockNr_1_taskNr_7_trialNr_10_english_recording.wav,0,274,274,199,1074.039111665974,1074.039111665974,1074.523080708267,1074.5227406249614,1074.5227406249614,1074.539355957997,q,4.614614584017545,407687,001,2023-01-18_10h06.13.774,exp,2022.2.3,59.416868000251,
stim/492818_blockNr_1_taskNr_6_trialNr_6_english_recording.wav,0,275,275,35,1078.6718001249828,1078.6718001249828,1079.1565761242935,1079.1561742079793,1079.1561742079793,1079.172604124993,p,3.243095792015083,407687,001,2023-01-18_10h06.13.774,exp,2022.2.3,59.416868000251,
stim/500223_blockNr_1_taskNr_7_trialNr_5_spanish_recording.wav,0,276,276,718,1081.9386739999754,1081.9386739999754,1082.4232769582711,1082.423215791001,1082.423215791001,1082.439626999956,q,10.96945150004467,407687,001,2023-01-18_10h06.13.774,exp,2022.2.3,59.416868000251,
stim/499512_blockNr_1_taskNr_7_trialNr_23_english_recording.wav,0,277,277,564,1092.9385846660007,1092.9385846660007,1093.4234506242617,1093.4223623749567,1093.4223623749567,1093.4396149999811,p,3.83974433405092,407687,001,2023-01-18_10h06.13.774,exp,2022.2.3,59.416868000251,
stim/499473_blockNr_1_taskNr_6_trialNr_2_english_recording.wav,0,278,278,452,1096.8057983749895,1096.8057983749895,1097.3066194992687,1097.3066683749785,1097.3066683749785,1097.3066683749785,p,3.2550341669702902,407687,001,2023-01-18_10h06.13.774,exp,2022.2.3,59.416868000251,
stim/492818_blockNr_1_taskNr_6_trialNr_10_english_recording.wav,0,279,279,27,1100.0891018330003,1100.0891018330003,1100.5904290412843,1100.5897434999933,1100.5897434999933,1100.5897434999933,p,2.215243625047151,407687,001,2023-01-18_10h06.13.774,exp,2022.2.3,59.416868000251,
stim/499458_blockNr_1_taskNr_6_trialNr_19_english_recording.wav,0,280,280,398,1102.323131040961,1102.323131040961,1102.806832374289,1102.8065762079787,1102.8065762079787,1102.8232855409733,q,2.3152435420197435,407687,001,2023-01-18_10h06.13.774,exp,2022.2.3,59.416868000251,
stim/492821_blockNr_1_taskNr_7_trialNr_24_english_recording.wav,0,281,281,41,1104.6569397079875,1104.6569397079875,1105.1561343332694,1105.1563724579755,1105.1563724579755,1105.1563724579755,q,1.666576082992833,407687,001,2023-01-18_10h06.13.774,exp,2022.2.3,59.416868000251,
stim/499525_blockNr_1_taskNr_6_trialNr_3_english_recording.wav,0,282,282,600,1106.3558819159516,1106.3558819159516,1106.8401193742582,1106.8391979159787,1106.8391979159787,1106.8568382499507,q,2.299656833987683,407687,001,2023-01-18_10h06.13.774,exp,2022.2.3,59.416868000251,
stim/500151_blockNr_1_taskNr_7_trialNr_24_spanish_recording.wav,0,283,283,708,1108.6725736659719,1108.6725736659719,1109.173573666293,1109.1730412079487,1109.1730412079487,1109.1730412079487,q,1.8791015419992618,407687,001,2023-01-18_10h06.13.774,exp,2022.2.3,59.416868000251,
stim/499470_blockNr_1_taskNr_7_trialNr_13_english_recording.wav,0,284,284,432,1110.573850207962,1110.573850207962,1111.0567544582707,1111.0570758749964,1111.0570758749964,1111.0732628749683,q,2.7213199170073494,407687,001,2023-01-18_10h06.13.774,exp,2022.2.3,59.416868000251,
stim/492814_blockNr_1_taskNr_7_trialNr_11_spanish_recording.wav,0,285,285,11,1113.3223184579983,1113.3223184579983,1113.806853208266,1113.807082040992,1113.807082040992,1113.8232952909893,q,1.5999467510264367,407687,001,2023-01-18_10h06.13.774,exp,2022.2.3,59.416868000251,
stim/492813_blockNr_1_taskNr_6_trialNr_21_english_recording.wav,0,286,286,4,1114.940899957961,1114.940899957961,1115.4242999162932,1115.4233263329952,1115.4233263329952,1115.4404270409723,q,1.7825647089630365,407687,001,2023-01-18_10h06.13.774,exp,2022.2.3,59.416868000251,
stim/499477_blockNr_1_taskNr_6_trialNr_4_english_recording.wav,0,287,287,484,1116.7406228329637,1116.7406228329637,1117.2242250412644,1117.2234109159908,1117.2234109159908,1117.2394222909934,q,2.0225933750043623,407687,001,2023-01-18_10h06.13.774,exp,2022.2.3,59.416868000251,
stim/493445_blockNr_1_taskNr_6_trialNr_20_english_recording.wav,0,288,288,239,1118.789838124998,1118.789838124998,1119.274246791302,1119.2740702499868,1119.2740702499868,1119.2899580409867,q,2.376906291989144,407687,001,2023-01-18_10h06.13.774,exp,2022.2.3,59.416868000251,
stim/492856_blockNr_1_taskNr_7_trialNr_4_english_recording.wav,0,289,289,87,1121.1896314579644,1121.1896314579644,1121.67394820826,1121.6741535829497,1121.6741535829497,1121.6906227080035,p,2.3212104589911178,407687,001,2023-01-18_10h06.13.774,exp,2022.2.3,59.416868000251,
stim/499475_blockNr_1_taskNr_6_trialNr_24_english_recording.wav,0,290,290,473,1123.539751290984,1123.539751290984,1124.0244982492702,1124.022994250001,1124.022994250001,1124.0407239999622,p,1.9668265000218526,407687,001,2023-01-18_10h06.13.774,exp,2022.2.3,59.416868000251,
stim/500301_blockNr_1_taskNr_6_trialNr_14_spanish_recording.wav,0,291,291,759,1125.5232693749713,1125.5232693749713,1126.0075192912889,1126.007112374995,1126.007112374995,1126.0237611659686,q,1.7786895000026561,407687,001,2023-01-18_10h06.13.774,exp,2022.2.3,59.416868000251,
stim/493232_blockNr_1_taskNr_6_trialNr_10_spanish_recording.wav,0,292,292,162,1127.3230013329885,1127.3230013329885,1127.8073492912633,1127.8071729579824,1127.8071729579824,1127.8238770409953,q,1.9773482920136303,407687,001,2023-01-18_10h06.13.774,exp,2022.2.3,59.416868000251,
stim/500265_blockNr_1_taskNr_6_trialNr_12_spanish_recording.wav,0,293,293,729,1129.3245180829545,1129.3245180829545,1129.807636041293,1129.8075878329691,1129.8075878329691,1129.824177249975,p,1.9547920419718139,407687,001,2023-01-18_10h06.13.774,exp,2022.2.3,59.416868000251,
stim/492814_blockNr_1_taskNr_7_trialNr_19_spanish_recording.wav,0,294,294,14,1131.3069499999983,1131.3069499999983,1131.7909759993024,1131.7903528329916,1131.7903528329916,1131.8062098749797,p,2.531979708990548,407687,001,2023-01-18_10h06.13.774,exp,2022.2.3,59.416868000251,
stim/493488_blockNr_1_taskNr_6_trialNr_24_english_recording.wav,0,295,295,274,1133.856799250003,1133.856799250003,1134.3411589582508,1134.3407691659522,1134.3407691659522,1134.3573837499716,p,2.7807741669821553,407687,001,2023-01-18_10h06.13.774,exp,2022.2.3,59.416868000251,
stim/499567_blockNr_1_taskNr_7_trialNr_16_english_recording.wav,0,296,296,650,1136.6568820829852,1136.6568820829852,1137.1414236242824,1137.1410206249566,1137.1410206249566,1137.1578463329934,q,2.525938833015971,407687,001,2023-01-18_10h06.13.774,exp,2022.2.3,59.416868000251,
stim/492864_blockNr_1_taskNr_6_trialNr_11_english_recording.wav,0,297,297,90,1139.2066273749806,1139.2066273749806,1139.689896624285,1139.6912271659821,1139.6912271659821,1139.7077013749513,p,2.49499608395854,407687,001,2023-01-18_10h06.13.774,exp,2022.2.3,59.416868000251,
stim/499444_blockNr_1_taskNr_6_trialNr_21_english_recording.wav,0,298,298,365,1141.72321370797,1141.72321370797,1142.207854458288,1142.2078373749973,1142.2078373749973,1142.2244050829904,q,2.5116786250146106,407687,001,2023-01-18_10h06.13.774,exp,2022.2.3,59.416868000251,
stim/493151_blockNr_1_taskNr_7_trialNr_20_spanish_recording.wav,0,299,299,147,1144.257543374959,1144.257543374959,1144.7411149162624,1144.7412829159875,1144.7412829159875,1144.7574658749509,q,1.4951622509979643,407687,001,2023-01-18_10h06.13.774,exp,2022.2.3,59.416868000251,
stim/493272_blockNr_1_taskNr_7_trialNr_1_english_recording.wav,0,300,300,171,1145.7739964159555,1145.7739964159555,1146.2577795832592,1146.2580847909558,1146.2580847909558,1146.2748504159972,q,1.490418250032235,407687,001,2023-01-18_10h06.13.774,exp,2022.2.3,59.416868000251,
stim/499488_blockNr_1_taskNr_7_trialNr_5_english_recording.wav,0,301,301,511,1147.2910597499576,1147.2910597499576,1147.7746930412657,1147.7745359579567,1147.7745359579567,1147.7908519159537,q,2.651860875019338,407687,001,2023-01-18_10h06.13.774,exp,2022.2.3,59.416868000251,
stim/493341_blockNr_1_taskNr_7_trialNr_7_english_recording.wav,0,302,302,224,1149.9743871249957,1149.9743871249957,1150.458372958278,1150.457998375001,1150.457998375001,1150.4742164579802,p,2.903612666996196,407687,001,2023-01-18_10h06.13.774,exp,2022.2.3,59.416868000251,
stim/499483_blockNr_1_taskNr_6_trialNr_21_english_recording.wav,0,303,303,499,1152.9072474999703,1152.9072474999703,1153.3916224992543,1153.391562707955,1153.391562707955,1153.408375124971,p,2.2484317499911413,407687,001,2023-01-18_10h06.13.774,exp,2022.2.3,59.416868000251,
stim/500151_blockNr_1_taskNr_7_trialNr_5_spanish_recording.wav,0,304,304,709,1155.1737007499905,1155.1737007499905,1155.6582527912512,1155.6584302909905,1155.6584302909905,1155.673673665966,q,2.968996082956437,407687,001,2023-01-18_10h06.13.774,exp,2022.2.3,59.416868000251,
stim/493275_blockNr_1_taskNr_7_trialNr_9_english_recording.wav,0,305,305,188,1158.173808833002,1158.173808833002,,,,,q,0.2959002500283532,407687,001,2023-01-18_10h06.13.774,exp,2022.2.3,59.416868000251,
stim/499475_blockNr_1_taskNr_6_trialNr_5_english_recording.wav,0,306,306,475,1158.4907643749611,1158.4907643749611,1158.9748301663028,1158.9749453749973,1158.9749453749973,1158.9919604579918,p,3.1557162089738995,407687,001,2023-01-18_10h06.13.774,exp,2022.2.3,59.416868000251,
stim/493232_blockNr_1_taskNr_6_trialNr_18_spanish_recording.wav,0,307,307,165,1161.6740477499552,1161.6740477499552,1162.1586263743054,1162.1580733750015,1162.1580733750015,1162.1748521249974,q,2.2015872499905527,407687,001,2023-01-18_10h06.13.774,exp,2022.2.3,59.416868000251,
stim/499497_blockNr_1_taskNr_6_trialNr_14_english_recording.wav,0,308,308,532,1163.9083550409996,1163.9083550409996,1164.3917842912895,1164.3916776249534,1164.3916776249534,1164.4080420829705,q,3.6580577089916915,407687,001,2023-01-18_10h06.13.774,exp,2022.2.3,59.416868000251,
stim/492835_blockNr_1_taskNr_6_trialNr_14_spanish_recording.wav,0,309,309,66,1167.5908567499719,1167.5908567499719,1168.0750664583,1168.074424833001,1168.074424833001,1168.091763290984,q,3.6065642090397887,407687,001,2023-01-18_10h06.13.774,exp,2022.2.3,59.416868000251,
stim/499516_blockNr_1_taskNr_6_trialNr_19_english_recording.wav,0,310,310,590,1171.224667374976,1171.224667374976,,,,,q,0.18325537501368672,407687,001,2023-01-18_10h06.13.774,exp,2022.2.3,59.416868000251,
stim/499477_blockNr_1_taskNr_6_trialNr_17_english_recording.wav,0,311,311,481,1171.4248292499688,1171.4248292499688,1171.9251453743025,1171.9248601659783,1171.9248601659783,1171.9248601659783,q,6.707618208019994,407687,001,2023-01-18_10h06.13.774,exp,2022.2.3,59.416868000251,
stim/499536_blockNr_1_taskNr_6_trialNr_22_english_recording.wav,0,312,312,616,1178.1574198330054,1178.1574198330054,1178.642144041293,1178.6420249579824,1178.6420249579824,1178.658530707995,q,2.430024750006851,407687,001,2023-01-18_10h06.13.774,exp,2022.2.3,59.416868000251,
stim/492814_blockNr_1_taskNr_7_trialNr_18_spanish_recording.wav,0,313,313,13,1180.6082117909682,1180.6082117909682,1181.0919391662871,1181.0918277499732,1181.0918277499732,1181.1080894999905,q,2.4343519579852,407687,001,2023-01-18_10h06.13.774,exp,2022.2.3,59.416868000251,
stim/499461_blockNr_1_taskNr_7_trialNr_10_english_recording.wav,0,314,314,406,1183.0759919999982,1183.0759919999982,1183.5583332492795,1183.558877207979,1183.558877207979,1183.5755039999494,p,2.1255012920009904,407687,001,2023-01-18_10h06.13.774,exp,2022.2.3,59.416868000251,
stim/500298_blockNr_1_taskNr_7_trialNr_19_spanish_recording.wav,0,315,315,751,1185.2239202499622,1185.2239202499622,1185.7089246662624,1185.7084794159746,1185.7084794159746,1185.725188707991,q,1.7626503329956904,407687,001,2023-01-18_10h06.13.774,exp,2022.2.3,59.416868000251,
stim/493454_blockNr_1_taskNr_6_trialNr_15_english_recording.wav,0,316,316,263,1187.0079757079948,1187.0079757079948,1187.5088857493072,1187.5087297499995,1187.5087297499995,1187.5087297499995,p,2.3692392500233836,407687,001,2023-01-18_10h06.13.774,exp,2022.2.3,59.416868000251,
stim/493297_blockNr_1_taskNr_7_trialNr_15_english_recording.wav,0,317,317,201,1189.408852374996,1189.408852374996,1189.8922520413005,1189.8919733749935,1189.8919733749935,1189.908687499992,q,2.3151125840377063,407687,001,2023-01-18_10h06.13.774,exp,2022.2.3,59.416868000251,
stim/492821_blockNr_1_taskNr_7_trialNr_3_english_recording.wav,0,318,318,42,1191.7414542500046,1191.7414542500046,1192.2261599582678,1192.224452540977,1192.224452540977,1192.2423849159968,q,1.6202837090240791,407687,001,2023-01-18_10h06.13.774,exp,2022.2.3,59.416868000251,
stim/499507_blockNr_1_taskNr_7_trialNr_21_english_recording.wav,0,319,319,546,1193.391604290984,1193.391604290984,1193.8756233742868,1193.8758212910034,1193.8758212910034,1193.89214695798,q,2.3001030840096064,407687,001,2023-01-18_10h06.13.774,exp,2022.2.3,59.416868000251,
stim/499495_blockNr_1_taskNr_6_trialNr_2_english_recording.wav,0,320,320,525,1195.7081470409757,1195.7081470409757,1196.1921669582778,1196.1919262909796,1196.1919262909796,1196.208492957987,q,2.232402459019795,407687,001,2023-01-18_10h06.13.774,exp,2022.2.3,59.416868000251,
stim/499488_blockNr_1_taskNr_7_trialNr_24_english_recording.wav,0,321,321,510,1197.9576654579723,1197.9576654579723,1198.4426501662645,1198.4422289579525,1198.4422289579525,1198.4588087499724,p,2.3850050839828327,407687,001,2023-01-18_10h06.13.774,exp,2022.2.3,59.416868000251,
stim/492817_blockNr_1_taskNr_7_trialNr_15_english_recording.wav,0,322,322,20,1200.3584364579874,1200.3584364579874,1200.8428429163002,1200.8409847909934,1200.8409847909934,1200.8592162079876,q,2.6331265419721603,407687,001,2023-01-18_10h06.13.774,exp,2022.2.3,59.416868000251,
stim/499451_blockNr_1_taskNr_7_trialNr_23_english_recording.wav,0,323,323,375,1203.0087955829804,1203.0087955829804,1203.49252199927,1203.492451625003,1203.492451625003,1203.5088157499558,p,4.573052833031397,407687,001,2023-01-18_10h06.13.774,exp,2022.2.3,59.416868000251,
stim/499488_blockNr_1_taskNr_7_trialNr_10_english_recording.wav,0,324,324,505,1207.60843462497,1207.60843462497,1208.0927891242725,1208.0920311659575,1208.0920311659575,1208.1092338750022,p,2.3498204589704983,407687,001,2023-01-18_10h06.13.774,exp,2022.2.3,59.416868000251,
stim/499515_blockNr_1_taskNr_7_trialNr_16_english_recording.wav,0,325,325,578,1209.9751779579674,1209.9751779579674,1210.4596012912632,1210.4591267079813,1210.4591267079813,1210.4762395829894,p,8.077746374998242,407687,001,2023-01-18_10h06.13.774,exp,2022.2.3,59.416868000251,
stim/492814_blockNr_1_taskNr_7_trialNr_15_spanish_recording.wav,0,326,326,12,1218.0765702499775,1218.0765702499775,1218.5597723742655,1218.5593655830016,1218.5593655830016,1218.5762249159743,p,2.4110521670081653,407687,001,2023-01-18_10h06.13.774,exp,2022.2.3,59.416868000251,
stim/493072_blockNr_1_taskNr_7_trialNr_8_spanish_recording.wav,0,327,327,143,1220.5087601249688,1220.5087601249688,1220.9929590832733,1220.9926305830013,1220.9926305830013,1221.0094816249912,q,2.2828238760121167,407687,001,2023-01-18_10h06.13.774,exp,2022.2.3,59.416868000251,
stim/499561_blockNr_1_taskNr_7_trialNr_16_english_recording.wav,0,328,328,640,1222.8088679159991,1222.8088679159991,1223.293288749276,1223.2924560409738,1223.2924560409738,1223.3094366249861,p,3.2246210839948617,407687,001,2023-01-18_10h06.13.774,exp,2022.2.3,59.416868000251,
stim/500225_blockNr_1_taskNr_6_trialNr_2_spanish_recording.wav,0,329,329,723,1226.059980207996,1226.059980207996,1226.543794916285,1226.5428678749595,1226.5428678749595,1226.5594669579878,q,2.2168290420086123,407687,001,2023-01-18_10h06.13.774,exp,2022.2.3,59.416868000251,
stim/499574_blockNr_1_taskNr_6_trialNr_9_english_recording.wav,0,330,330,674,1228.2921459999634,1228.2921459999634,1228.7934559162647,1228.793300874997,1228.793300874997,1228.793300874997,p,1.8588389999931678,407687,001,2023-01-18_10h06.13.774,exp,2022.2.3,59.416868000251,
stim/500100_blockNr_1_taskNr_6_trialNr_10_spanish_recording.wav,0,331,331,684,1230.1758871249622,1230.1758871249622,1230.6601356242725,1230.6599395829835,1230.6599395829835,1230.6766727909562,q,3.46755712502636,407687,001,2023-01-18_10h06.13.774,exp,2022.2.3,59.416868000251,
stim/499456_blockNr_1_taskNr_7_trialNr_1_english_recording.wav,0,332,332,387,1233.659010165953,1233.659010165953,1234.143564124283,1234.1428414999973,1234.1428414999973,1234.1600671249907,p,5.316337625961751,407687,001,2023-01-18_10h06.13.774,exp,2022.2.3,59.416868000251,
stim/494162_blockNr_1_taskNr_7_trialNr_2_english_recording.wav,0,333,333,320,1238.9928309159586,1238.9928309159586,1239.4773350832809,1239.4769737079623,1239.4769737079623,1239.4920432499493,p,2.418129208032042,407687,001,2023-01-18_10h06.13.774,exp,2022.2.3,59.416868000251,
stim/499466_blockNr_1_taskNr_6_trialNr_19_english_recording.wav,0,334,334,418,1241.4437004579813,1241.4437004579813,1241.927164624253,1241.927400916,1241.927400916,1241.943006290996,q,2.6340640009730123,407687,001,2023-01-18_10h06.13.774,exp,2022.2.3,59.416868000251,
stim/499567_blockNr_1_taskNr_7_trialNr_7_english_recording.wav,0,335,335,656,1244.1098780829925,1244.1098780829925,1244.5935664162796,1244.5935848749941,1244.5935848749941,1244.6096741249785,p,5.115263041981962,407687,001,2023-01-18_10h06.13.774,exp,2022.2.3,59.416868000251,
stim/494216_blockNr_1_taskNr_6_trialNr_8_english_recording.wav,0,336,336,341,1249.2426757079666,1249.2426757079666,1249.7272800832695,1249.7270169159747,1249.7270169159747,1249.743712291005,p,1.912266917002853,407687,001,2023-01-18_10h06.13.774,exp,2022.2.3,59.416868000251,
stim/500100_blockNr_1_taskNr_6_trialNr_5_spanish_recording.wav,0,337,337,689,1251.176128082967,1251.176128082967,1251.6600379582785,1251.6605592499836,1251.6605592499836,1251.6772929579602,q,3.4327023759833537,407687,001,2023-01-18_10h06.13.774,exp,2022.2.3,59.416868000251,
stim/493453_blockNr_1_taskNr_6_trialNr_22_english_recording.wav,0,338,338,257,1254.6267508330056,1254.6267508330056,1255.127234166296,1255.1272748329793,1255.1272748329793,1255.1272748329793,p,2.5772289170417935,407687,001,2023-01-18_10h06.13.774,exp,2022.2.3,59.416868000251,
stim/499456_blockNr_1_taskNr_7_trialNr_3_english_recording.wav,0,339,339,395,1257.2268518749624,1257.2268518749624,1257.7106287082831,1257.710610374983,1257.710610374983,1257.7273228329723,p,3.5746460420195945,407687,001,2023-01-18_10h06.13.774,exp,2022.2.3,59.416868000251,
stim/499532_blockNr_1_taskNr_6_trialNr_12_english_recording.wav,0,340,340,604,1260.8262838749797,1260.8262838749797,1261.3107657082553,1261.310335999995,1261.310335999995,1261.3276549159782,p,2.4009545000153594,407687,001,2023-01-18_10h06.13.774,exp,2022.2.3,59.416868000251,
stim/492909_blockNr_1_taskNr_6_trialNr_24_english_recording.wav,0,341,341,133,1263.2439755409723,1263.2439755409723,1263.7277819162525,1263.7277579579968,1263.7277579579968,1263.743956124992,q,2.199236375046894,407687,001,2023-01-18_10h06.13.774,exp,2022.2.3,59.416868000251,
stim/493297_blockNr_1_taskNr_7_trialNr_9_english_recording.wav,0,342,342,206,1265.4600074999616,1265.4600074999616,1265.9444282082666,1265.944354874955,1265.944354874955,1265.9607936249813,p,1.9937514169723727,407687,001,2023-01-18_10h06.13.774,exp,2022.2.3,59.416868000251,
stim/492825_blockNr_1_taskNr_7_trialNr_7_english_recording.wav,0,343,343,51,1267.4771599579835,1267.4771599579835,1267.9606073743023,1267.9607003749697,1267.9607003749697,1267.9768982079695,q,2.0874381260364316,407687,001,2023-01-18_10h06.13.774,exp,2022.2.3,59.416868000251,
stim/499461_blockNr_1_taskNr_7_trialNr_23_english_recording.wav,0,344,344,411,1269.5932929159608,1269.5932929159608,1270.0779417912534,1270.0777651660028,1270.0777651660028,1270.0929210829781,p,3.8229672079905868,407687,001,2023-01-18_10h06.13.774,exp,2022.2.3,59.416868000251,
stim/493341_blockNr_1_taskNr_7_trialNr_16_english_recording.wav,0,345,345,220,1273.443543499976,1273.443543499976,1273.9279232912638,1273.927583624958,1273.927583624958,1273.944299958006,q,3.8877649169880897,407687,001,2023-01-18_10h06.13.774,exp,2022.2.3,59.416868000251,
stim/500081_blockNr_1_taskNr_6_trialNr_5_spanish_recording.wav,0,346,346,681,1277.3601857500034,1277.3601857500034,1277.86107066627,1277.8611891249893,1277.8611891249893,1277.8611891249893,q,9.381076792022213,407687,001,2023-01-18_10h06.13.774,exp,2022.2.3,59.416868000251,
stim/499473_blockNr_1_taskNr_6_trialNr_24_english_recording.wav,0,347,347,454,1286.8219574579853,1286.8219574579853,1287.2784074582567,1287.2784386659623,1287.2784386659623,1287.3279860409675,p,5.238937624963,407687,001,2023-01-18_10h06.13.774,exp,2022.2.3,59.416868000251,
stim/499467_blockNr_1_taskNr_7_trialNr_13_english_recording.wav,0,348,348,425,1292.084421165986,1292.084421165986,1292.5784917083045,1292.5780097909737,1292.5780097909737,1292.5947052499978,p,8.251884500030428,407687,001,2023-01-18_10h06.13.774,exp,2022.2.3,59.416868000251,
stim/493215_blockNr_1_taskNr_6_trialNr_20_english_recording.wav,0,349,349,157,1300.360666124965,1300.360666124965,1300.8450715413026,1300.8450364579912,1300.8450364579912,1300.8610601249966,p,2.174198708962649,407687,001,2023-01-18_10h06.13.774,exp,2022.2.3,59.416868000251,
stim/499495_blockNr_1_taskNr_6_trialNr_19_english_recording.wav,0,350,350,524,1302.5608774999855,1302.5608774999855,1303.0448107492819,1303.0447918329737,1303.0447918329737,1303.062298749981,p,2.10380379203707,407687,001,2023-01-18_10h06.13.774,exp,2022.2.3,59.416868000251,
stim/499557_blockNr_1_taskNr_6_trialNr_8_english_recording.wav,0,351,351,637,1304.6940172909526,1304.6940172909526,1305.178984083276,1305.1787231249618,1305.1787231249618,1305.19512845797,p,1.9652162920101546,407687,001,2023-01-18_10h06.13.774,exp,2022.2.3,59.416868000251,
stim/500223_blockNr_1_taskNr_7_trialNr_8_spanish_recording.wav,0,352,352,719,1306.6775141659891,1306.6775141659891,1307.1620772493013,1307.161995790957,1307.161995790957,1307.1783400829881,q,2.97633929195581,407687,001,2023-01-18_10h06.13.774,exp,2022.2.3,59.416868000251,
stim/493488_blockNr_1_taskNr_6_trialNr_13_english_recording.wav,0,353,353,271,1309.6774809999624,1309.6774809999624,1310.162246916251,1310.162026624952,1310.162026624952,1310.178718082956,q,3.383983374980744,407687,001,2023-01-18_10h06.13.774,exp,2022.2.3,59.416868000251,
stim/499514_blockNr_1_taskNr_7_trialNr_4_english_recording.wav,0,354,354,574,1313.0783345829695,1313.0783345829695,1313.5624111242767,1313.5620187079767,1313.5620187079767,1313.5782487499528,q,1.6870632090140134,407687,001,2023-01-18_10h06.13.774,exp,2022.2.3,59.416868000251,
stim/499474_blockNr_1_taskNr_6_trialNr_15_english_recording.wav,0,355,355,461,1314.7946107909665,1314.7946107909665,1315.278967249306,1315.278877749981,1315.278877749981,1315.294941500004,p,1.885075500991661,407687,001,2023-01-18_10h06.13.774,exp,2022.2.3,59.416868000251,
stim/500225_blockNr_1_taskNr_6_trialNr_21_spanish_recording.wav,0,356,356,724,1316.7107697079773,1316.7107697079773,1317.195697041269,1317.1955655829515,1317.1955655829515,1317.2119173749816,q,1.952220666978974,407687,001,2023-01-18_10h06.13.774,exp,2022.2.3,59.416868000251,
stim/499532_blockNr_1_taskNr_6_trialNr_3_english_recording.wav,0,357,357,609,1318.6772848749533,1318.6772848749533,1319.1784662912657,1319.1789039159776,1319.1789039159776,1319.1789039159776,q,6.494274000986479,407687,001,2023-01-18_10h06.13.774,exp,2022.2.3,59.416868000251,
stim/499561_blockNr_1_taskNr_7_trialNr_24_english_recording.wav,0,358,358,644,1325.194628999976,1325.194628999976,1325.6792795412882,1325.6789875410032,1325.6789875410032,1325.6957641659537,p,2.5897612920380197,407687,001,2023-01-18_10h06.13.774,exp,2022.2.3,59.416868000251,
stim/492864_blockNr_1_taskNr_6_trialNr_17_english_recording.wav,0,359,359,92,1327.8112360829837,1327.8112360829837,1328.2958728743076,1328.295173499966,1328.295173499966,1328.3120410409756,p,2.265602041967213,407687,001,2023-01-18_10h06.13.774,exp,2022.2.3,59.416868000251,
stim/492817_blockNr_1_taskNr_7_trialNr_20_english_recording.wav,0,360,360,23,1330.0948433749727,1330.0948433749727,1330.579133124306,1330.5788277909742,1330.5788277909742,1330.5967685829964,q,1.9317281249677762,407687,001,2023-01-18_10h06.13.774,exp,2022.2.3,59.416868000251,
stim/500141_blockNr_1_taskNr_7_trialNr_12_spanish_recording.wav,0,361,361,695,1332.044744749961,1332.044744749961,1332.5459942492714,1332.5458120830008,1332.5458120830008,1332.5458120830008,q,3.265531624958385,407687,001,2023-01-18_10h06.13.774,exp,2022.2.3,59.416868000251,
stim/499553_blockNr_1_taskNr_7_trialNr_16_english_recording.wav,0,362,362,624,1335.3282889580005,1335.3282889580005,1335.829237041279,1335.8280224579503,1335.8280224579503,1335.8280224579503,p,3.334340166999027,407687,001,2023-01-18_10h06.13.774,exp,2022.2.3,59.416868000251,
stim/500401_blockNr_1_taskNr_6_trialNr_23_spanish_recording.wav,0,363,363,769,1338.695322707994,1338.695322707994,1339.1794384163047,1339.178957749973,1339.178957749973,1339.196420082997,q,1.9722504999954253,407687,001,2023-01-18_10h06.13.774,exp,2022.2.3,59.416868000251,
stim/493414_blockNr_1_taskNr_7_trialNr_6_english_recording.wav,0,364,364,232,1340.695174499997,1340.695174499997,1341.1790258333028,1341.1791444579721,1341.1791444579721,1341.1956845829845,q,3.6295158339780755,407687,001,2023-01-18_10h06.13.774,exp,2022.2.3,59.416868000251,
stim/500265_blockNr_1_taskNr_6_trialNr_5_spanish_recording.wav,0,365,365,734,1344.345049207972,1344.345049207972,1344.8292468332627,1344.8288547910051,1344.8288547910051,1344.8457398329629,q,2.12540637596976,407687,001,2023-01-18_10h06.13.774,exp,2022.2.3,59.416868000251,
